trial,ID,run,img_pair,choice,side,outcome,matched,RT,a_learnedprob_correct,b_learnedprob_correct,c_learnedprob_correct,d_learnedprob_correct,e_learnedprob_correct,f_learnedprob_correct,reinforcer_response
0,1,run01,EF,F,1,reward,mismatched,1.569796,,,,,0,1,
1,1,run01,CD,D,2,punish,matched,1.601124,,,1,0,,,
2,1,run01,CD,D,2,punish,matched,1.600702,,,1,0,,,explore_punish
3,1,run01,CD,Miss,Miss,Miss,Miss,Miss,,,,,,,miss_response
4,1,run01,AB,A,2,reward,matched,1.580793,1,0,,,,,
5,1,run01,AB,B,2,reward,mismatched,1.564219,0.5,0.5,,,,,explore_reward
6,1,run01,AB,B,1,punish,matched,1.612839,0.666666667,0.333333333,,,,,exploit_reward
7,1,run01,CD,D,2,punish,matched,1.594208,,,1,0,,,miss_response
8,1,run01,CD,C,1,reward,matched,1.611155,,,1,0,,,exploit_punish
9,1,run01,AB,A,1,punish,mismatched,1.594223,0.5,0.5,,,,,exploit_punish
10,1,run01,EF,F,2,reward,mismatched,1.593177,,,,,0,1,exploit_reward
11,1,run01,CD,D,2,punish,matched,1.590463,,,1,0,,,explore_reward
12,1,run01,AB,A,2,punish,mismatched,1.590193,0.4,0.6,,,,,explore_punish
13,1,run01,CD,C,1,reward,matched,1.605062,,,1,0,,,exploit_punish
14,1,run01,CD,C,1,reward,matched,1.605347,,,1,0,,,exploit_reward
15,1,run01,AB,A,1,punish,mismatched,1.587054,0.333333333,0.666666667,,,,,explore_punish
16,1,run01,CD,D,1,punish,matched,1.602987,,,1,0,,,explore_reward
17,1,run01,AB,A,1,reward,matched,1.602018,0.428571429,0.571428571,,,,,explore_punish
18,1,run01,AB,B,2,punish,matched,1.600867,0.5,0.5,,,,,explore_reward
19,1,run01,EF,E,2,reward,matched,1.582977,,,,,0.333333333,0.666666667,explore_reward
20,1,run01,AB,Miss,Miss,Miss,Miss,Miss,,,,,,,miss_response
21,1,run01,AB,A,2,reward,matched,1.61496,0.555555556,0.444444444,,,,,miss_response
22,1,run01,AB,B,1,reward,mismatched,1.580498,0.5,0.5,,,,,explore_reward
23,1,run01,CD,C,2,reward,matched,1.596363,,,1,0,,,exploit_punish
24,1,run01,AB,A,1,reward,matched,1.596714,0.545454545,0.454545455,,,,,explore_reward
25,1,run01,CD,Miss,Miss,Miss,Miss,Miss,,,,,,,miss_response
26,1,run02,EF,F,1,reward,mismatched,1.567948,,,,,0.25,0.75,explore_reward
27,1,run02,CD,D,1,reward,mismatched,1.583463,,,0.9,0.1,,,miss_response
28,1,run02,AB,A,1,reward,matched,1.600016,0.583333333,0.416666667,,,,,exploit_reward
29,1,run02,AB,B,2,punish,matched,1.599418,0.615384615,0.384615385,,,,,explore_reward
30,1,run02,CD,Miss,Miss,Miss,Miss,Miss,,,,,,,miss_response
31,1,run02,CD,C,1,reward,matched,1.596084,,,0.909090909,0.090909091,,,miss_response
32,1,run02,EF,E,2,punish,mismatched,1.595025,,,,,0.2,0.8,explore_reward
33,1,run02,CD,C,1,reward,matched,1.594204,,,0.916666667,0.083333333,,,exploit_reward
34,1,run02,AB,A,2,reward,matched,1.594216,0.642857143,0.357142857,,,,,exploit_punish
35,1,run02,CD,Miss,Miss,Miss,Miss,Miss,,,,,,,miss_response
36,1,run02,AB,B,2,punish,matched,1.607863,0.666666667,0.333333333,,,,,explore_reward
37,1,run02,CD,D,1,punish,matched,1.608114,,,0.923076923,0.076923077,,,miss_response
38,1,run02,EF,F,2,punish,matched,1.605375,,,,,0.333333333,0.666666667,exploit_punish
39,1,run02,AB,B,2,reward,mismatched,1.587784,0.625,0.375,,,,,explore_punish
40,1,run02,AB,A,2,reward,matched,1.604879,0.647058824,0.352941176,,,,,explore_reward
41,1,run02,AB,A,2,reward,matched,1.586674,0.666666667,0.333333333,,,,,exploit_reward
42,1,run02,EF,F,1,punish,matched,1.602567,,,,,0.428571429,0.571428571,explore_punish
43,1,run02,CD,D,1,punish,matched,1.617212,,,0.928571429,0.071428571,,,explore_punish
44,1,run02,CD,C,2,reward,matched,1.618557,,,0.933333333,0.066666667,,,exploit_punish
45,1,run02,EF,E,1,punish,mismatched,1.59796,,,,,0.375,0.625,exploit_punish
46,1,run02,CD,C,2,reward,matched,1.580839,,,0.9375,0.0625,,,exploit_reward
47,1,run02,EF,E,1,reward,matched,1.596438,,,,,0.444444444,0.555555556,explore_punish
48,1,run02,EF,E,1,reward,matched,1.596493,,,,,0.5,0.5,exploit_reward
49,1,run02,CD,C,1,punish,mismatched,1.610976,,,0.882352941,0.117647059,,,exploit_reward
50,1,run02,CD,D,2,punish,matched,1.60983,,,0.888888889,0.111111111,,,exploit_punish
51,1,run02,CD,D,1,reward,mismatched,1.592104,,,0.842105263,0.157894737,,,explore_punish
52,1,run03,AB,A,2,reward,matched,1.583751,0.684210526,0.315789474,,,,,exploit_reward
53,1,run03,AB,B,1,punish,matched,1.615984,0.7,0.3,,,,,explore_reward
54,1,run03,EF,E,2,punish,mismatched,1.598555,,,,,0.454545455,0.545454545,exploit_reward
55,1,run03,CD,D,1,reward,mismatched,1.616161,,,0.8,0.2,,,exploit_reward
56,1,run03,AB,B,2,punish,matched,1.620375,0.714285714,0.285714286,,,,,explore_punish
57,1,run03,AB,B,2,reward,mismatched,1.613717,0.681818182,0.318181818,,,,,explore_punish
58,1,run03,CD,D,2,punish,matched,1.627984,,,0.80952381,0.19047619,,,exploit_reward
59,1,run03,EF,F,1,reward,mismatched,1.617798,,,,,0.416666667,0.583333333,exploit_punish
60,1,run03,AB,B,2,punish,matched,1.610023,0.695652174,0.304347826,,,,,exploit_reward
61,1,run03,EF,F,1,reward,mismatched,1.610108,,,,,0.384615385,0.615384615,exploit_reward
62,1,run03,AB,A,2,punish,mismatched,1.595104,0.666666667,0.333333333,,,,,exploit_punish
63,1,run03,AB,B,2,punish,matched,1.607097,0.68,0.32,,,,,exploit_punish
64,1,run03,EF,F,1,punish,matched,1.602248,,,,,0.428571429,0.571428571,exploit_reward
65,1,run03,CD,D,1,punish,matched,1.621025,,,0.818181818,0.181818182,,,explore_punish
66,1,run03,CD,C,1,reward,matched,1.606979,,,0.826086957,0.173913043,,,exploit_punish
67,1,run03,CD,D,2,punish,matched,1.618837,,,0.833333333,0.166666667,,,explore_reward
68,1,run03,EF,E,1,punish,mismatched,1.602526,,,,,0.4,0.6,exploit_punish
69,1,run03,AB,B,2,punish,matched,1.598565,0.692307692,0.307692308,,,,,explore_punish
70,1,run03,EF,E,2,reward,matched,1.616903,,,,,0.4375,0.5625,explore_punish
71,1,run03,AB,B,2,punish,matched,1.596828,0.703703704,0.296296296,,,,,explore_punish
72,1,run03,CD,C,1,punish,mismatched,1.615141,,,0.8,0.2,,,exploit_punish
73,1,run03,EF,F,2,punish,matched,1.610519,,,,,0.470588235,0.529411765,explore_reward
74,1,run03,AB,A,2,reward,matched,1.600248,0.714285714,0.285714286,,,,,exploit_punish
75,1,run03,CD,C,2,reward,matched,1.615614,,,0.807692308,0.192307692,,,explore_punish
76,1,run03,AB,B,2,reward,mismatched,1.609683,0.689655172,0.310344828,,,,,explore_reward
77,1,run03,AB,B,1,punish,matched,1.609303,0.7,0.3,,,,,exploit_reward
78,1,run04,AB,A,1,reward,matched,1.567914,0.709677419,0.290322581,,,,,exploit_punish
79,1,run04,CD,C,2,punish,mismatched,1.566817,,,0.777777778,0.222222222,,,exploit_reward
80,1,run04,AB,A,1,reward,matched,1.600015,0.71875,0.28125,,,,,exploit_reward
81,1,run04,EF,E,2,punish,mismatched,1.597668,,,,,0.444444444,0.555555556,exploit_punish
82,1,run04,EF,F,2,reward,mismatched,1.579999,,,,,0.421052632,0.578947368,exploit_punish
83,1,run04,EF,F,2,punish,matched,1.579331,,,,,0.45,0.55,exploit_reward
84,1,run04,AB,A,1,reward,matched,1.595599,0.727272727,0.272727273,,,,,exploit_reward
85,1,run04,CD,C,1,reward,matched,1.610148,,,0.785714286,0.214285714,,,explore_punish
86,1,run04,AB,B,2,punish,matched,1.593779,0.735294118,0.264705882,,,,,explore_reward
87,1,run04,AB,B,2,punish,matched,1.592215,0.742857143,0.257142857,,,,,explore_punish
88,1,run04,CD,Miss,Miss,Miss,Miss,Miss,,,,,,,explore_reward
89,1,run04,CD,Miss,Miss,Miss,Miss,Miss,,,,,,,miss_response
90,1,run04,EF,E,2,reward,matched,1.571638,,,,,0.476190476,0.523809524,exploit_punish
91,1,run04,EF,F,1,reward,mismatched,1.603959,,,,,0.454545455,0.545454545,explore_reward
92,1,run04,EF,E,2,punish,mismatched,1.586667,,,,,0.434782609,0.565217391,explore_reward
93,1,run04,AB,A,2,reward,matched,1.60225,0.75,0.25,,,,,exploit_punish
94,1,run04,CD,C,1,reward,matched,1.602497,,,0.793103448,0.206896552,,,miss_response
95,1,run04,AB,B,2,punish,matched,1.583664,0.756756757,0.243243243,,,,,explore_reward
96,1,run04,CD,C,1,reward,matched,1.600436,,,0.8,0.2,,,exploit_reward
97,1,run04,AB,B,2,reward,mismatched,1.582885,0.736842105,0.263157895,,,,,explore_punish
98,1,run04,CD,D,1,reward,mismatched,1.598864,,,0.774193548,0.225806452,,,explore_reward
99,1,run04,AB,Miss,Miss,Miss,Miss,Miss,,,,,,,miss_response
100,1,run04,AB,B,2,punish,matched,1.596398,0.743589744,0.256410256,,,,,miss_response
101,1,run04,CD,D,2,punish,matched,1.610596,,,0.78125,0.21875,,,exploit_reward
102,1,run04,AB,A,2,reward,matched,1.576546,0.75,0.25,,,,,exploit_punish
103,1,run04,AB,A,2,reward,matched,1.608679,0.756097561,0.243902439,,,,,exploit_reward
0,2,run01,EF,Miss,Miss,Miss,Miss,Miss,,,,,,,
1,2,run01,EF,E,2,reward,matched,1.600823,,,,,1,0,miss_response
2,2,run01,AB,B,1,punish,matched,1.600153,1,0,,,,,
3,2,run01,AB,Miss,Miss,Miss,Miss,Miss,,,,,,,miss_response
4,2,run01,EF,E,1,reward,matched,1.613808,,,,,1,0,exploit_reward
5,2,run01,EF,E,1,reward,matched,1.597129,,,,,1,0,exploit_reward
6,2,run01,EF,E,1,reward,matched,1.59576,,,,,1,0,exploit_reward
7,2,run01,CD,C,2,punish,mismatched,1.611129,,,0,1,,,
8,2,run01,CD,Miss,Miss,Miss,Miss,Miss,,,,,,,miss_response
9,2,run01,AB,A,1,reward,matched,1.591829,1,0,,,,,miss_response
10,2,run01,EF,F,2,reward,mismatched,1.592462,,,,,0.8,0.2,explore_reward
11,2,run01,AB,B,1,punish,matched,1.607049,1,0,,,,,explore_reward
12,2,run01,CD,D,2,punish,matched,1.607055,,,0.5,0.5,,,miss_response
13,2,run01,EF,E,2,reward,matched,1.606709,,,,,0.833333333,0.166666667,explore_reward
14,2,run01,EF,F,1,reward,mismatched,1.60519,,,,,0.714285714,0.285714286,explore_reward
15,2,run01,AB,B,2,reward,mismatched,1.604076,0.75,0.25,,,,,explore_punish
16,2,run01,CD,D,1,punish,matched,1.619657,,,0.666666667,0.333333333,,,explore_punish
17,2,run01,CD,C,1,punish,mismatched,1.602077,,,0.5,0.5,,,exploit_punish
18,2,run01,CD,C,2,reward,matched,1.600088,,,0.6,0.4,,,explore_punish
19,2,run01,EF,F,1,reward,mismatched,1.60006,,,,,0.625,0.375,exploit_reward
20,2,run01,EF,F,2,punish,matched,1.616499,,,,,0.666666667,0.333333333,exploit_reward
21,2,run01,AB,Miss,Miss,Miss,Miss,Miss,,,,,,,miss_response
22,2,run01,AB,A,1,reward,matched,1.597161,0.8,0.2,,,,,miss_response
23,2,run01,AB,B,1,punish,matched,1.5962,0.833333333,0.166666667,,,,,explore_reward
24,2,run01,CD,D,1,reward,mismatched,1.612055,,,0.5,0.5,,,explore_reward
25,2,run01,CD,C,1,punish,mismatched,1.576426,,,0.428571429,0.571428571,,,explore_reward
26,2,run02,EF,E,1,reward,matched,1.584632,,,,,0.7,0.3,exploit_punish
27,2,run02,EF,E,2,punish,mismatched,1.599823,,,,,0.636363636,0.363636364,exploit_reward
28,2,run02,AB,A,2,reward,matched,1.599609,0.857142857,0.142857143,,,,,exploit_punish
29,2,run02,EF,E,2,reward,matched,1.582101,,,,,0.666666667,0.333333333,explore_punish
30,2,run02,CD,C,2,reward,matched,1.598019,,,0.5,0.5,,,explore_punish
31,2,run02,EF,E,1,punish,mismatched,1.595786,,,,,0.615384615,0.384615385,exploit_reward
32,2,run02,CD,C,1,punish,mismatched,1.612379,,,0.444444444,0.555555556,,,exploit_reward
33,2,run02,EF,F,1,punish,matched,1.610242,,,,,0.642857143,0.357142857,exploit_punish
34,2,run02,EF,E,1,reward,matched,1.576812,,,,,0.666666667,0.333333333,exploit_punish
35,2,run02,CD,Miss,Miss,Miss,Miss,Miss,,,,,,,miss_response
36,2,run02,AB,B,1,reward,mismatched,1.607016,0.75,0.25,,,,,explore_reward
37,2,run02,CD,C,1,reward,matched,1.590593,,,0.5,0.5,,,miss_response
38,2,run02,EF,E,2,reward,matched,1.571928,,,,,0.6875,0.3125,exploit_reward
39,2,run02,EF,F,2,punish,matched,1.587503,,,,,0.705882353,0.294117647,explore_reward
40,2,run02,EF,F,2,punish,matched,1.604061,,,,,0.722222222,0.277777778,explore_punish
41,2,run02,CD,C,2,reward,matched,1.603275,,,0.545454545,0.454545455,,,exploit_reward
42,2,run02,EF,F,1,reward,mismatched,1.60223,,,,,0.684210526,0.315789474,explore_punish
43,2,run02,CD,D,2,punish,matched,1.583413,,,0.583333333,0.416666667,,,explore_reward
44,2,run02,CD,C,1,reward,matched,1.600834,,,0.615384615,0.384615385,,,exploit_punish
45,2,run02,EF,E,2,punish,mismatched,1.616211,,,,,0.65,0.35,explore_reward
46,2,run02,CD,C,1,reward,matched,1.59812,,,0.642857143,0.357142857,,,exploit_reward
47,2,run02,AB,A,1,reward,matched,1.596044,0.777777778,0.222222222,,,,,explore_reward
48,2,run02,AB,A,2,reward,matched,1.59527,0.8,0.2,,,,,exploit_reward
49,2,run02,AB,A,2,reward,matched,1.610877,0.818181818,0.181818182,,,,,exploit_reward
50,2,run02,AB,B,1,reward,mismatched,1.594156,0.75,0.25,,,,,explore_reward
51,2,run02,EF,E,1,reward,matched,1.591834,,,,,0.666666667,0.333333333,explore_punish
52,2,run03,EF,F,1,punish,matched,1.568209,,,,,0.681818182,0.318181818,explore_reward
53,2,run03,EF,F,2,punish,matched,1.601069,,,,,0.695652174,0.304347826,explore_punish
54,2,run03,EF,E,1,reward,matched,1.615572,,,,,0.708333333,0.291666667,exploit_punish
55,2,run03,CD,D,1,reward,mismatched,1.598271,,,0.6,0.4,,,explore_reward
56,2,run03,AB,A,2,punish,mismatched,1.615017,0.692307692,0.307692308,,,,,explore_reward
57,2,run03,AB,A,1,reward,matched,1.613953,0.714285714,0.285714286,,,,,explore_punish
58,2,run03,EF,E,1,punish,mismatched,1.579457,,,,,0.68,0.32,exploit_reward
59,2,run03,AB,B,1,punish,matched,1.611921,0.733333333,0.266666667,,,,,explore_reward
60,2,run03,AB,A,2,reward,matched,1.594346,0.75,0.25,,,,,exploit_punish
61,2,run03,CD,D,1,punish,matched,1.59307,,,0.625,0.375,,,exploit_reward
62,2,run03,CD,D,1,punish,matched,1.592001,,,0.647058824,0.352941176,,,explore_punish
63,2,run03,AB,A,2,reward,matched,1.590952,0.764705882,0.235294118,,,,,exploit_reward
64,2,run03,EF,E,1,reward,matched,1.589866,,,,,0.692307692,0.307692308,explore_punish
65,2,run03,CD,C,2,reward,matched,1.605938,,,0.666666667,0.333333333,,,exploit_punish
66,2,run03,AB,A,1,punish,mismatched,1.588232,0.722222222,0.277777778,,,,,exploit_reward
67,2,run03,AB,B,2,punish,matched,1.586935,0.736842105,0.263157895,,,,,exploit_punish
68,2,run03,EF,E,1,punish,mismatched,1.603007,,,,,0.666666667,0.333333333,exploit_reward
69,2,run03,EF,E,2,reward,matched,1.600307,,,,,0.678571429,0.321428571,explore_punish
70,2,run03,EF,E,1,reward,matched,1.583665,,,,,0.689655172,0.310344828,exploit_reward
71,2,run03,CD,C,1,reward,matched,1.581613,,,0.684210526,0.315789474,,,exploit_reward
72,2,run03,AB,B,2,punish,matched,1.598581,0.75,0.25,,,,,explore_punish
73,2,run03,AB,B,1,punish,matched,1.613971,0.761904762,0.238095238,,,,,explore_punish
74,2,run03,EF,E,1,reward,matched,1.596802,,,,,0.7,0.3,exploit_reward
75,2,run03,AB,B,1,punish,matched,1.595727,0.772727273,0.227272727,,,,,explore_punish
76,2,run03,AB,B,2,reward,mismatched,1.576657,0.739130435,0.260869565,,,,,explore_punish
77,2,run03,EF,E,1,punish,mismatched,1.610397,,,,,0.677419355,0.322580645,exploit_reward
78,2,run04,CD,C,1,reward,matched,1.602498,,,0.7,0.3,,,exploit_reward
79,2,run04,EF,F,2,punish,matched,1.60334,,,,,0.6875,0.3125,exploit_punish
80,2,run04,EF,F,1,punish,matched,1.601036,,,,,0.696969697,0.303030303,explore_punish
81,2,run04,EF,F,1,punish,matched,1.615704,,,,,0.705882353,0.294117647,explore_punish
82,2,run04,CD,D,1,punish,matched,1.614641,,,0.714285714,0.285714286,,,explore_reward
83,2,run04,CD,C,1,reward,matched,1.616867,,,0.727272727,0.272727273,,,exploit_punish
84,2,run04,EF,E,2,reward,matched,1.629171,,,,,0.714285714,0.285714286,exploit_punish
85,2,run04,EF,E,1,reward,matched,1.611662,,,,,0.722222222,0.277777778,exploit_reward
86,2,run04,AB,B,1,reward,mismatched,1.594817,0.708333333,0.291666667,,,,,exploit_reward
87,2,run04,EF,E,2,punish,mismatched,1.611505,,,,,0.702702703,0.297297297,exploit_reward
88,2,run04,CD,C,1,punish,mismatched,1.615469,,,0.695652174,0.304347826,,,exploit_reward
89,2,run04,EF,E,1,punish,mismatched,1.626605,,,,,0.684210526,0.315789474,explore_punish
90,2,run04,EF,F,2,reward,mismatched,1.610764,,,,,0.666666667,0.333333333,exploit_punish
91,2,run04,AB,B,2,punish,matched,1.605959,0.72,0.28,,,,,exploit_reward
92,2,run04,CD,C,1,reward,matched,1.620022,,,0.708333333,0.291666667,,,explore_punish
93,2,run04,EF,E,1,reward,matched,1.614071,,,,,0.675,0.325,explore_reward
94,2,run04,EF,F,2,punish,matched,1.6209,,,,,0.682926829,0.317073171,explore_reward
95,2,run04,AB,B,1,punish,matched,1.612851,0.730769231,0.269230769,,,,,explore_punish
96,2,run04,CD,D,2,punish,matched,1.618056,,,0.72,0.28,,,explore_reward
97,2,run04,EF,E,1,punish,mismatched,1.61367,,,,,0.666666667,0.333333333,exploit_punish
98,2,run04,EF,E,2,reward,matched,1.608034,,,,,0.674418605,0.325581395,explore_punish
99,2,run04,EF,F,1,reward,mismatched,1.626157,,,,,0.659090909,0.340909091,explore_reward
100,2,run04,EF,F,1,reward,mismatched,1.616297,,,,,0.644444444,0.355555556,exploit_reward
101,2,run04,AB,B,2,punish,matched,1.606314,0.740740741,0.259259259,,,,,explore_punish
102,2,run04,EF,E,1,punish,mismatched,1.600952,,,,,0.630434783,0.369565217,explore_reward
103,2,run04,CD,D,1,punish,matched,1.618875,,,0.730769231,0.269230769,,,explore_punish
0,3,run01,AB,Miss,Miss,Miss,Miss,Miss,,,,,,,
1,3,run01,CD,C,2,reward,matched,1.57586,,,1,0,,,
2,3,run01,AB,A,1,reward,matched,1.582725,1,0,,,,,miss_response
3,3,run01,AB,A,2,reward,matched,1.583955,1,0,,,,,exploit_reward
4,3,run01,CD,C,1,reward,matched,1.586933,,,1,0,,,exploit_reward
5,3,run01,EF,E,2,reward,matched,1.581718,,,,,1,0,
6,3,run01,AB,A,1,reward,matched,1.587818,1,0,,,,,exploit_reward
7,3,run01,EF,E,2,reward,matched,1.595712,,,,,1,0,exploit_reward
8,3,run01,EF,E,1,reward,matched,1.58468,,,,,1,0,exploit_reward
9,3,run01,AB,A,2,reward,matched,1.592392,1,0,,,,,exploit_reward
10,3,run01,AB,B,2,punish,matched,1.574637,1,0,,,,,explore_reward
11,3,run01,CD,D,1,punish,matched,1.586783,,,1,0,,,explore_reward
12,3,run01,CD,C,2,reward,matched,1.587463,,,1,0,,,exploit_punish
13,3,run01,CD,D,2,punish,matched,1.58572,,,1,0,,,explore_reward
14,3,run01,EF,E,1,reward,matched,1.5711,,,,,1,0,exploit_reward
15,3,run01,AB,B,2,punish,matched,1.579705,1,0,,,,,explore_punish
16,3,run01,CD,C,1,reward,matched,1.593982,,,1,0,,,exploit_punish
17,3,run01,CD,C,1,reward,matched,1.577211,,,1,0,,,exploit_reward
18,3,run01,AB,B,1,punish,matched,1.592915,1,0,,,,,explore_punish
19,3,run01,AB,B,2,punish,matched,1.586607,1,0,,,,,explore_punish
20,3,run01,CD,D,2,punish,matched,1.58822,,,1,0,,,explore_reward
21,3,run01,CD,D,2,punish,matched,1.588601,,,1,0,,,explore_punish
22,3,run01,EF,F,2,reward,mismatched,1.596289,,,,,0.8,0.2,explore_reward
23,3,run01,AB,B,2,punish,matched,1.586583,1,0,,,,,explore_punish
24,3,run01,EF,E,2,punish,mismatched,1.584414,,,,,0.666666667,0.333333333,explore_reward
25,3,run01,EF,E,2,reward,matched,1.577263,,,,,0.714285714,0.285714286,explore_punish
26,3,run02,EF,F,2,punish,matched,1.552185,,,,,0.75,0.25,explore_reward
27,3,run02,EF,E,2,reward,matched,1.582602,,,,,0.777777778,0.222222222,exploit_punish
28,3,run02,AB,B,1,punish,matched,1.577093,1,0,,,,,explore_punish
29,3,run02,CD,C,2,reward,matched,1.584444,,,1,0,,,exploit_punish
30,3,run02,CD,D,2,punish,matched,1.580765,,,1,0,,,explore_reward
31,3,run02,AB,A,2,punish,mismatched,1.581415,0.909090909,0.090909091,,,,,exploit_punish
32,3,run02,AB,A,2,reward,matched,1.587716,0.916666667,0.083333333,,,,,explore_punish
33,3,run02,CD,D,1,reward,mismatched,1.579658,,,0.916666667,0.083333333,,,explore_punish
34,3,run02,AB,A,1,reward,matched,1.597706,0.923076923,0.076923077,,,,,exploit_reward
35,3,run02,AB,B,1,punish,matched,1.574841,0.928571429,0.071428571,,,,,explore_reward
36,3,run02,CD,D,1,reward,mismatched,1.575609,,,0.846153846,0.153846154,,,exploit_reward
37,3,run02,CD,C,2,reward,matched,1.598901,,,0.857142857,0.142857143,,,explore_reward
38,3,run02,AB,B,2,reward,mismatched,1.589639,0.866666667,0.133333333,,,,,explore_punish
39,3,run02,EF,E,1,reward,matched,1.577467,,,,,0.8,0.2,exploit_reward
40,3,run02,AB,A,2,punish,mismatched,1.587131,0.8125,0.1875,,,,,explore_reward
41,3,run02,CD,D,1,punish,matched,1.589645,,,0.866666667,0.133333333,,,explore_reward
42,3,run02,CD,D,2,punish,matched,1.594946,,,0.875,0.125,,,explore_punish
43,3,run02,EF,E,1,punish,mismatched,1.584259,,,,,0.727272727,0.272727273,exploit_reward
44,3,run02,EF,F,2,punish,matched,1.591752,,,,,0.75,0.25,exploit_punish
45,3,run02,EF,F,1,reward,mismatched,1.57419,,,,,0.692307692,0.307692308,explore_punish
46,3,run02,CD,C,2,punish,mismatched,1.565675,,,0.823529412,0.176470588,,,exploit_punish
47,3,run02,CD,D,2,punish,matched,1.589352,,,0.833333333,0.166666667,,,exploit_punish
48,3,run02,CD,D,2,punish,matched,1.589379,,,0.842105263,0.157894737,,,explore_punish
49,3,run02,CD,C,2,punish,mismatched,1.578603,,,0.8,0.2,,,exploit_punish
50,3,run02,CD,C,2,reward,matched,1.593813,,,0.80952381,0.19047619,,,explore_punish
51,3,run02,CD,C,2,reward,matched,1.576224,,,0.818181818,0.181818182,,,exploit_reward
52,3,run03,CD,C,2,reward,matched,1.563612,,,0.826086957,0.173913043,,,exploit_reward
53,3,run03,EF,F,2,punish,matched,1.576129,,,,,0.714285714,0.285714286,exploit_reward
54,3,run03,AB,A,1,reward,matched,1.584156,0.823529412,0.176470588,,,,,explore_punish
55,3,run03,AB,A,2,reward,matched,1.585688,0.833333333,0.166666667,,,,,exploit_reward
56,3,run03,CD,D,1,punish,matched,1.570897,,,0.833333333,0.166666667,,,explore_reward
57,3,run03,CD,C,1,punish,mismatched,1.581419,,,0.8,0.2,,,exploit_punish
58,3,run03,CD,D,2,punish,matched,1.595673,,,0.807692308,0.192307692,,,exploit_punish
59,3,run03,AB,B,2,reward,mismatched,1.587391,0.789473684,0.210526316,,,,,explore_reward
60,3,run03,EF,F,1,reward,mismatched,1.582342,,,,,0.666666667,0.333333333,explore_punish
61,3,run03,AB,B,2,punish,matched,1.577359,0.8,0.2,,,,,exploit_reward
62,3,run03,EF,F,1,reward,mismatched,1.597664,,,,,0.625,0.375,exploit_reward
63,3,run03,AB,B,1,punish,matched,1.584715,0.80952381,0.19047619,,,,,explore_punish
64,3,run03,CD,D,2,punish,matched,1.597383,,,0.814814815,0.185185185,,,explore_punish
65,3,run03,CD,D,1,punish,matched,1.590563,,,0.821428571,0.178571429,,,explore_punish
66,3,run03,CD,D,1,punish,matched,1.590793,,,0.827586207,0.172413793,,,explore_punish
67,3,run03,EF,F,1,reward,mismatched,1.589288,,,,,0.588235294,0.411764706,exploit_reward
68,3,run03,EF,F,2,punish,matched,1.581684,,,,,0.611111111,0.388888889,exploit_reward
69,3,run03,EF,F,2,reward,mismatched,1.589997,,,,,0.578947368,0.421052632,explore_punish
70,3,run03,AB,B,1,punish,matched,1.584539,0.818181818,0.181818182,,,,,explore_punish
71,3,run03,AB,B,2,punish,matched,1.584586,0.826086957,0.173913043,,,,,explore_punish
72,3,run03,AB,B,1,punish,matched,1.582733,0.833333333,0.166666667,,,,,explore_punish
73,3,run03,AB,A,2,reward,matched,1.588425,0.84,0.16,,,,,exploit_punish
74,3,run03,AB,A,1,punish,mismatched,1.597283,0.807692308,0.192307692,,,,,exploit_reward
75,3,run03,CD,D,2,punish,matched,1.586835,,,0.833333333,0.166666667,,,explore_punish
76,3,run03,EF,F,1,reward,mismatched,1.595417,,,,,0.55,0.45,exploit_reward
77,3,run03,AB,B,1,punish,matched,1.592076,0.814814815,0.185185185,,,,,exploit_punish
78,3,run04,EF,E,1,reward,matched,1.564207,,,,,0.571428571,0.428571429,explore_reward
79,3,run04,AB,B,1,punish,matched,1.581376,0.821428571,0.178571429,,,,,explore_punish
80,3,run04,EF,E,1,reward,matched,1.592468,,,,,0.590909091,0.409090909,exploit_reward
81,3,run04,EF,E,1,reward,matched,1.59045,,,,,0.608695652,0.391304348,exploit_reward
82,3,run04,AB,A,2,punish,mismatched,1.573051,0.793103448,0.206896552,,,,,exploit_punish
83,3,run04,AB,A,2,punish,mismatched,1.584682,0.766666667,0.233333333,,,,,explore_punish
84,3,run04,CD,C,1,reward,matched,1.581147,,,0.838709677,0.161290323,,,exploit_punish
85,3,run04,CD,D,2,punish,matched,1.596636,,,0.84375,0.15625,,,explore_reward
86,3,run04,AB,B,1,reward,mismatched,1.588399,0.741935484,0.258064516,,,,,exploit_punish
87,3,run04,AB,A,2,punish,mismatched,1.590875,0.71875,0.28125,,,,,explore_reward
88,3,run04,AB,B,2,punish,matched,1.577212,0.727272727,0.272727273,,,,,exploit_punish
89,3,run04,EF,F,2,reward,mismatched,1.571585,,,,,0.583333333,0.416666667,explore_reward
90,3,run04,AB,A,2,reward,matched,1.589867,0.735294118,0.264705882,,,,,exploit_punish
91,3,run04,AB,B,1,punish,matched,1.578808,0.742857143,0.257142857,,,,,explore_reward
92,3,run04,CD,D,2,punish,matched,1.589944,,,0.848484848,0.151515152,,,explore_punish
93,3,run04,AB,A,2,punish,mismatched,1.591592,0.722222222,0.277777778,,,,,exploit_punish
94,3,run04,AB,B,2,punish,matched,1.579284,0.72972973,0.27027027,,,,,exploit_punish
95,3,run04,AB,B,1,punish,matched,1.591072,0.736842105,0.263157895,,,,,explore_punish
96,3,run04,AB,B,2,reward,mismatched,1.586117,0.717948718,0.282051282,,,,,explore_punish
97,3,run04,CD,C,1,reward,matched,1.593842,,,0.852941176,0.147058824,,,exploit_punish
98,3,run04,CD,C,1,reward,matched,1.585091,,,0.857142857,0.142857143,,,exploit_reward
99,3,run04,EF,F,2,punish,matched,1.585252,,,,,0.6,0.4,exploit_reward
100,3,run04,CD,C,2,reward,matched,1.597281,,,0.861111111,0.138888889,,,exploit_reward
101,3,run04,EF,F,1,reward,mismatched,1.582386,,,,,0.576923077,0.423076923,explore_punish
102,3,run04,EF,E,2,reward,matched,1.580128,,,,,0.592592593,0.407407407,explore_reward
103,3,run04,EF,E,1,reward,matched,1.58111,,,,,0.607142857,0.392857143,exploit_reward
0,4,run01,AB,A,2,punish,mismatched,1.568732,0,1,,,,,
1,4,run01,CD,C,1,reward,matched,1.568763,,,1,0,,,
2,4,run01,CD,C,2,reward,matched,1.583615,,,1,0,,,exploit_reward
3,4,run01,AB,B,1,punish,matched,1.599383,0.5,0.5,,,,,exploit_punish
4,4,run01,EF,E,2,reward,matched,1.581338,,,,,1,0,
5,4,run01,AB,A,1,reward,matched,1.580364,0.666666667,0.333333333,,,,,exploit_punish
6,4,run01,EF,Miss,Miss,Miss,Miss,Miss,,,,,,,miss_response
7,4,run01,AB,Miss,Miss,Miss,Miss,Miss,,,,,,,miss_response
8,4,run01,AB,A,1,reward,matched,1.610813,0.75,0.25,,,,,miss_response
9,4,run01,CD,D,1,punish,matched,1.5919,,,1,0,,,explore_reward
10,4,run01,EF,E,1,punish,mismatched,1.577248,,,,,0.5,0.5,miss_response
11,4,run01,CD,C,2,reward,matched,1.590787,,,1,0,,,exploit_punish
12,4,run01,EF,F,1,reward,mismatched,1.590414,,,,,0.333333333,0.666666667,exploit_punish
13,4,run01,CD,D,1,reward,mismatched,1.605161,,,0.8,0.2,,,explore_reward
14,4,run01,CD,D,2,punish,matched,1.60539,,,0.833333333,0.166666667,,,exploit_reward
15,4,run01,AB,A,2,reward,matched,1.603126,0.8,0.2,,,,,exploit_reward
16,4,run01,CD,C,1,reward,matched,1.586773,,,0.857142857,0.142857143,,,exploit_punish
17,4,run01,CD,D,2,reward,mismatched,1.586152,,,0.75,0.25,,,explore_reward
18,4,run01,CD,C,2,punish,mismatched,1.583708,,,0.666666667,0.333333333,,,explore_reward
19,4,run01,AB,B,2,punish,matched,1.583311,0.833333333,0.166666667,,,,,explore_reward
20,4,run01,AB,A,1,punish,mismatched,1.581301,0.714285714,0.285714286,,,,,exploit_punish
21,4,run01,CD,D,2,punish,matched,1.59849,,,0.7,0.3,,,exploit_punish
22,4,run01,AB,B,2,punish,matched,1.59748,0.75,0.25,,,,,exploit_punish
23,4,run01,EF,F,1,reward,mismatched,1.580334,,,,,0.25,0.75,exploit_reward
24,4,run01,EF,E,1,reward,matched,1.594339,,,,,0.4,0.6,explore_reward
25,4,run01,AB,A,2,punish,mismatched,1.594212,0.666666667,0.333333333,,,,,exploit_punish
26,4,run02,CD,D,1,reward,mismatched,1.585091,,,0.636363636,0.363636364,,,explore_punish
27,4,run02,EF,E,2,reward,matched,1.600185,,,,,0.5,0.5,exploit_reward
28,4,run02,EF,E,1,reward,matched,1.583613,,,,,0.571428571,0.428571429,exploit_reward
29,4,run02,AB,B,1,reward,mismatched,1.599024,0.6,0.4,,,,,exploit_punish
30,4,run02,AB,A,2,reward,matched,1.582151,0.636363636,0.363636364,,,,,explore_reward
31,4,run02,EF,E,1,punish,mismatched,1.59596,,,,,0.5,0.5,exploit_reward
32,4,run02,CD,D,1,reward,mismatched,1.577869,,,0.583333333,0.416666667,,,exploit_reward
33,4,run02,EF,F,2,punish,matched,1.610672,,,,,0.555555556,0.444444444,exploit_punish
34,4,run02,CD,D,1,reward,mismatched,1.592889,,,0.538461538,0.461538462,,,exploit_reward
35,4,run02,CD,C,1,reward,matched,1.593069,,,0.571428571,0.428571429,,,explore_reward
36,4,run02,AB,B,1,punish,matched,1.591056,0.666666667,0.333333333,,,,,explore_reward
37,4,run02,EF,E,2,reward,matched,1.573984,,,,,0.6,0.4,exploit_punish
38,4,run02,EF,E,2,punish,mismatched,1.588558,,,,,0.545454545,0.454545455,exploit_reward
39,4,run02,AB,A,2,punish,mismatched,1.571518,0.615384615,0.384615385,,,,,exploit_punish
40,4,run02,CD,C,1,punish,mismatched,1.605234,,,0.533333333,0.466666667,,,exploit_reward
41,4,run02,CD,D,2,punish,matched,1.603399,,,0.5625,0.4375,,,exploit_punish
42,4,run02,AB,A,1,reward,matched,1.586368,0.642857143,0.357142857,,,,,explore_punish
43,4,run02,CD,C,2,reward,matched,1.60059,,,0.588235294,0.411764706,,,exploit_punish
44,4,run02,AB,B,1,punish,matched,1.567708,0.666666667,0.333333333,,,,,explore_reward
45,4,run02,CD,C,1,reward,matched,1.581771,,,0.611111111,0.388888889,,,exploit_reward
46,4,run02,AB,A,2,reward,matched,1.597695,0.6875,0.3125,,,,,exploit_punish
47,4,run02,AB,A,1,punish,mismatched,1.57991,0.647058824,0.352941176,,,,,exploit_reward
48,4,run02,CD,D,2,punish,matched,1.578943,,,0.631578947,0.368421053,,,explore_reward
49,4,run02,CD,D,1,reward,mismatched,1.577557,,,0.6,0.4,,,explore_punish
50,4,run02,CD,D,1,punish,matched,1.593271,,,0.619047619,0.380952381,,,exploit_reward
51,4,run02,EF,E,2,reward,matched,1.576571,,,,,0.583333333,0.416666667,explore_punish
52,4,run03,EF,E,1,punish,mismatched,1.569975,,,,,0.538461538,0.461538462,exploit_reward
53,4,run03,AB,A,2,reward,matched,1.601737,0.666666667,0.333333333,,,,,explore_punish
54,4,run03,EF,E,2,punish,mismatched,1.616235,,,,,0.5,0.5,explore_punish
55,4,run03,CD,C,1,reward,matched,1.581921,,,0.636363636,0.363636364,,,exploit_punish
56,4,run03,CD,D,2,punish,matched,1.598736,,,0.652173913,0.347826087,,,explore_reward
57,4,run03,AB,B,2,punish,matched,1.613917,0.684210526,0.315789474,,,,,explore_reward
58,4,run03,CD,D,1,punish,matched,1.579128,,,0.666666667,0.333333333,,,explore_punish
59,4,run03,EF,F,2,reward,mismatched,1.577912,,,,,0.466666667,0.533333333,exploit_punish
60,4,run03,EF,E,1,reward,matched,1.594959,,,,,0.5,0.5,explore_reward
61,4,run03,EF,E,1,punish,mismatched,1.610175,,,,,0.470588235,0.529411765,exploit_reward
62,4,run03,CD,C,2,reward,matched,1.576014,,,0.68,0.32,,,exploit_punish
63,4,run03,CD,D,2,punish,matched,1.59113,,,0.692307692,0.307692308,,,explore_reward
64,4,run03,AB,B,1,punish,matched,1.589039,0.7,0.3,,,,,explore_punish
65,4,run03,AB,B,2,punish,matched,1.589989,0.714285714,0.285714286,,,,,explore_punish
66,4,run03,EF,F,2,punish,matched,1.588644,,,,,0.5,0.5,exploit_punish
67,4,run03,CD,D,2,punish,matched,1.604259,,,0.703703704,0.296296296,,,explore_punish
68,4,run03,CD,C,2,reward,matched,1.603166,,,0.714285714,0.285714286,,,exploit_punish
69,4,run03,AB,A,1,reward,matched,1.585713,0.727272727,0.272727273,,,,,exploit_punish
70,4,run03,CD,C,1,punish,mismatched,1.601064,,,0.689655172,0.310344828,,,exploit_reward
71,4,run03,AB,A,1,reward,matched,1.598106,0.739130435,0.260869565,,,,,exploit_reward
72,4,run03,AB,B,2,punish,matched,1.582765,0.75,0.25,,,,,explore_reward
73,4,run03,CD,D,1,punish,matched,1.581803,,,0.7,0.3,,,exploit_punish
74,4,run03,EF,E,2,punish,mismatched,1.597467,,,,,0.473684211,0.526315789,exploit_punish
75,4,run03,EF,F,2,punish,matched,1.578362,,,,,0.5,0.5,exploit_punish
76,4,run03,AB,A,2,reward,matched,1.594594,0.76,0.24,,,,,exploit_punish
77,4,run03,AB,B,2,punish,matched,1.575956,0.769230769,0.230769231,,,,,explore_reward
78,4,run04,CD,C,1,reward,matched,1.586808,,,0.709677419,0.290322581,,,exploit_punish
79,4,run04,CD,C,1,punish,mismatched,1.615595,,,0.6875,0.3125,,,exploit_reward
80,4,run04,AB,B,2,punish,matched,1.616228,0.777777778,0.222222222,,,,,explore_punish
81,4,run04,AB,B,2,punish,matched,1.599732,0.785714286,0.214285714,,,,,explore_punish
82,4,run04,AB,A,1,reward,matched,1.599065,0.793103448,0.206896552,,,,,exploit_punish
83,4,run04,CD,C,2,reward,matched,1.601939,,,0.696969697,0.303030303,,,explore_punish
84,4,run04,AB,A,1,reward,matched,1.59989,0.8,0.2,,,,,exploit_reward
85,4,run04,AB,B,1,punish,matched,1.596779,0.806451613,0.193548387,,,,,explore_reward
86,4,run04,AB,A,1,reward,matched,1.595619,0.8125,0.1875,,,,,exploit_punish
87,4,run04,EF,E,1,reward,matched,1.592506,,,,,0.523809524,0.476190476,exploit_punish
88,4,run04,CD,D,2,punish,matched,1.611897,,,0.705882353,0.294117647,,,explore_reward
89,4,run04,EF,E,1,punish,mismatched,1.592661,,,,,0.5,0.5,exploit_reward
90,4,run04,AB,B,2,punish,matched,1.593681,0.818181818,0.181818182,,,,,explore_reward
91,4,run04,EF,F,1,reward,mismatched,1.590378,,,,,0.47826087,0.52173913,exploit_punish
92,4,run04,AB,A,1,reward,matched,1.60756,0.823529412,0.176470588,,,,,exploit_punish
93,4,run04,CD,C,1,punish,mismatched,1.598041,,,0.685714286,0.314285714,,,exploit_punish
94,4,run04,EF,Miss,Miss,Miss,Miss,Miss,,,,,,,miss_response
95,4,run04,CD,C,2,reward,matched,1.593441,,,0.694444444,0.305555556,,,explore_punish
96,4,run04,AB,A,1,reward,matched,1.6003,0.828571429,0.171428571,,,,,exploit_reward
97,4,run04,CD,C,2,reward,matched,1.602977,,,0.702702703,0.297297297,,,exploit_reward
98,4,run04,AB,B,1,punish,matched,1.612694,0.833333333,0.166666667,,,,,explore_reward
99,4,run04,AB,A,1,reward,matched,1.60682,0.837837838,0.162162162,,,,,exploit_punish
100,4,run04,AB,A,1,reward,matched,1.598617,0.842105263,0.157894737,,,,,exploit_reward
101,4,run04,AB,B,2,reward,mismatched,1.597218,0.820512821,0.179487179,,,,,explore_reward
102,4,run04,EF,F,1,reward,mismatched,1.600567,,,,,0.458333333,0.541666667,miss_response
103,4,run04,CD,D,1,punish,matched,1.617157,,,0.710526316,0.289473684,,,explore_reward
0,5,run01,AB,A,2,reward,matched,1.586654,1,0,,,,,
1,5,run01,CD,D,1,punish,matched,1.582016,,,1,0,,,
2,5,run01,AB,A,2,reward,matched,1.583173,1,0,,,,,exploit_reward
3,5,run01,EF,E,2,reward,matched,1.59124,,,,,1,0,
4,5,run01,AB,B,1,punish,matched,1.599115,1,0,,,,,explore_reward
5,5,run01,CD,C,1,reward,matched,1.587612,,,1,0,,,exploit_punish
6,5,run01,CD,C,2,reward,matched,1.594544,,,1,0,,,exploit_reward
7,5,run01,CD,C,2,punish,mismatched,1.596795,,,0.75,0.25,,,exploit_reward
8,5,run01,CD,D,2,punish,matched,1.593913,,,0.8,0.2,,,exploit_punish
9,5,run01,EF,E,1,reward,matched,1.612275,,,,,1,0,exploit_reward
10,5,run01,EF,Miss,Miss,Miss,Miss,Miss,,,,,,,miss_response
11,5,run01,CD,D,1,punish,matched,1.592576,,,0.833333333,0.166666667,,,explore_punish
12,5,run01,CD,C,1,reward,matched,1.595317,,,0.857142857,0.142857143,,,exploit_punish
13,5,run01,CD,D,1,punish,matched,1.589992,,,0.875,0.125,,,explore_reward
14,5,run01,AB,A,1,punish,mismatched,1.592044,0.75,0.25,,,,,exploit_punish
15,5,run01,AB,B,2,punish,matched,1.588877,0.8,0.2,,,,,exploit_punish
16,5,run01,AB,A,2,reward,matched,1.585613,0.833333333,0.166666667,,,,,exploit_punish
17,5,run01,EF,E,2,punish,mismatched,1.584646,,,,,0.666666667,0.333333333,miss_response
18,5,run01,CD,D,1,reward,mismatched,1.597424,,,0.777777778,0.222222222,,,explore_punish
19,5,run01,AB,B,2,punish,matched,1.592266,0.857142857,0.142857143,,,,,explore_reward
20,5,run01,CD,D,1,punish,matched,1.599681,,,0.8,0.2,,,exploit_reward
21,5,run01,AB,A,2,reward,matched,1.595981,0.875,0.125,,,,,exploit_punish
22,5,run01,AB,A,1,reward,matched,1.587193,0.888888889,0.111111111,,,,,exploit_reward
23,5,run01,AB,A,1,reward,matched,1.579142,0.9,0.1,,,,,exploit_reward
24,5,run01,CD,D,2,punish,matched,1.596125,,,0.818181818,0.181818182,,,explore_punish
25,5,run01,EF,F,2,punish,matched,1.596582,,,,,0.75,0.25,exploit_punish
26,5,run02,CD,D,1,reward,mismatched,1.570005,,,0.75,0.25,,,explore_punish
27,5,run02,AB,A,2,punish,mismatched,1.582539,0.818181818,0.181818182,,,,,exploit_reward
28,5,run02,CD,D,1,reward,mismatched,1.59187,,,0.692307692,0.307692308,,,exploit_reward
29,5,run02,AB,B,1,punish,matched,1.584423,0.833333333,0.166666667,,,,,exploit_punish
30,5,run02,AB,B,2,reward,mismatched,1.591722,0.769230769,0.230769231,,,,,explore_punish
31,5,run02,EF,F,1,punish,matched,1.580331,,,,,0.8,0.2,explore_punish
32,5,run02,EF,F,1,reward,mismatched,1.588297,,,,,0.666666667,0.333333333,explore_punish
33,5,run02,EF,E,1,reward,matched,1.595978,,,,,0.714285714,0.285714286,explore_reward
34,5,run02,AB,A,1,reward,matched,1.59805,0.785714286,0.214285714,,,,,explore_reward
35,5,run02,EF,F,1,punish,matched,1.575903,,,,,0.75,0.25,explore_reward
36,5,run02,CD,C,2,reward,matched,1.590415,,,0.714285714,0.285714286,,,explore_reward
37,5,run02,EF,E,1,reward,matched,1.589922,,,,,0.777777778,0.222222222,exploit_punish
38,5,run02,AB,B,2,punish,matched,1.590402,0.8,0.2,,,,,explore_reward
39,5,run02,EF,E,2,reward,matched,1.593996,,,,,0.8,0.2,exploit_reward
40,5,run02,CD,D,2,reward,mismatched,1.588345,,,0.666666667,0.333333333,,,explore_reward
41,5,run02,EF,E,1,reward,matched,1.588786,,,,,0.818181818,0.181818182,exploit_reward
42,5,run02,EF,F,2,reward,mismatched,1.584819,,,,,0.75,0.25,explore_reward
43,5,run02,AB,B,1,punish,matched,1.584855,0.8125,0.1875,,,,,explore_punish
44,5,run02,AB,B,2,punish,matched,1.593978,0.823529412,0.176470588,,,,,explore_punish
45,5,run02,CD,D,2,punish,matched,1.58962,,,0.6875,0.3125,,,exploit_reward
46,5,run02,EF,F,2,punish,matched,1.580314,,,,,0.769230769,0.230769231,exploit_reward
47,5,run02,CD,D,2,punish,matched,1.603012,,,0.705882353,0.294117647,,,explore_punish
48,5,run02,AB,A,2,punish,mismatched,1.578846,0.777777778,0.222222222,,,,,exploit_punish
49,5,run02,AB,B,1,punish,matched,1.594976,0.789473684,0.210526316,,,,,exploit_punish
50,5,run02,AB,A,2,punish,mismatched,1.591941,0.75,0.25,,,,,exploit_punish
51,5,run02,AB,A,2,punish,mismatched,1.592966,0.714285714,0.285714286,,,,,explore_punish
52,5,run03,EF,E,2,punish,mismatched,1.559797,,,,,0.714285714,0.285714286,exploit_punish
53,5,run03,EF,F,1,punish,matched,1.586657,,,,,0.733333333,0.266666667,exploit_punish
54,5,run03,EF,F,2,punish,matched,1.589062,,,,,0.75,0.25,explore_punish
55,5,run03,AB,A,2,reward,matched,1.585159,0.727272727,0.272727273,,,,,explore_punish
56,5,run03,CD,C,1,reward,matched,1.581714,,,0.722222222,0.277777778,,,exploit_punish
57,5,run03,EF,F,2,reward,mismatched,1.587426,,,,,0.705882353,0.294117647,explore_punish
58,5,run03,EF,F,2,reward,mismatched,1.598803,,,,,0.666666667,0.333333333,exploit_reward
59,5,run03,EF,F,2,punish,matched,1.581132,,,,,0.684210526,0.315789474,exploit_reward
60,5,run03,EF,F,1,punish,matched,1.578903,,,,,0.7,0.3,explore_punish
61,5,run03,AB,A,2,punish,mismatched,1.58017,0.695652174,0.304347826,,,,,exploit_reward
62,5,run03,EF,E,2,punish,mismatched,1.590319,,,,,0.666666667,0.333333333,exploit_punish
63,5,run03,AB,A,1,reward,matched,1.593439,0.708333333,0.291666667,,,,,explore_punish
64,5,run03,CD,C,1,reward,matched,1.609158,,,0.736842105,0.263157895,,,exploit_reward
65,5,run03,AB,B,1,reward,mismatched,1.593587,0.68,0.32,,,,,explore_reward
66,5,run03,CD,C,1,reward,matched,1.589257,,,0.75,0.25,,,exploit_reward
67,5,run03,AB,A,1,reward,matched,1.589642,0.692307692,0.307692308,,,,,explore_reward
68,5,run03,CD,D,1,reward,mismatched,1.58701,,,0.714285714,0.285714286,,,explore_reward
69,5,run03,EF,E,1,reward,matched,1.587299,,,,,0.681818182,0.318181818,explore_punish
70,5,run03,EF,E,1,reward,matched,1.601343,,,,,0.695652174,0.304347826,exploit_reward
71,5,run03,CD,C,2,reward,matched,1.599698,,,0.727272727,0.272727273,,,explore_reward
72,5,run03,EF,F,1,reward,mismatched,1.591443,,,,,0.666666667,0.333333333,explore_reward
73,5,run03,EF,E,2,reward,matched,1.59933,,,,,0.68,0.32,explore_reward
74,5,run03,EF,F,1,punish,matched,1.581183,,,,,0.692307692,0.307692308,explore_reward
75,5,run03,AB,A,2,reward,matched,1.580912,0.703703704,0.296296296,,,,,exploit_reward
76,5,run03,CD,D,1,punish,matched,1.601953,,,0.739130435,0.260869565,,,explore_reward
77,5,run03,AB,Miss,Miss,Miss,Miss,Miss,,,,,,,miss_response
78,5,run04,AB,A,1,reward,matched,1.554667,0.714285714,0.285714286,,,,,miss_response
79,5,run04,AB,Miss,Miss,Miss,Miss,Miss,,,,,,,explore_reward
80,5,run04,CD,Miss,Miss,Miss,Miss,Miss,,,,,,,exploit_punish
81,5,run04,CD,Miss,Miss,Miss,Miss,Miss,,,,,,,miss_response
0,6,run01,AB,A,1,reward,matched,1.581486,1,0,,,,,
1,6,run01,EF,F,2,punish,matched,1.576037,,,,,1,0,
2,6,run01,CD,C,2,punish,mismatched,1.58277,,,0,1,,,
3,6,run01,AB,Miss,Miss,Miss,Miss,Miss,,,,,,,miss_response
4,6,run01,AB,B,1,punish,matched,1.603689,1,0,,,,,miss_response
5,6,run01,EF,Miss,Miss,Miss,Miss,Miss,,,,,,,miss_response
6,6,run01,EF,F,1,reward,mismatched,1.604678,,,,,0.5,0.5,miss_response
7,6,run01,AB,B,2,punish,matched,1.595601,1,0,,,,,explore_punish
8,6,run01,AB,A,1,reward,matched,1.602934,1,0,,,,,exploit_punish
9,6,run01,AB,B,2,punish,matched,1.588473,1,0,,,,,explore_reward
10,6,run01,AB,B,2,reward,mismatched,1.591342,0.833333333,0.166666667,,,,,explore_punish
11,6,run01,AB,A,1,reward,matched,1.591193,0.857142857,0.142857143,,,,,explore_reward
12,6,run01,AB,A,2,reward,matched,1.58888,0.875,0.125,,,,,exploit_reward
13,6,run01,EF,E,1,reward,matched,1.598707,,,,,0.666666667,0.333333333,explore_reward
14,6,run01,AB,A,2,reward,matched,1.601872,0.888888889,0.111111111,,,,,exploit_reward
15,6,run01,EF,E,1,reward,matched,1.597256,,,,,0.75,0.25,exploit_reward
16,6,run01,EF,F,1,punish,matched,1.592761,,,,,0.8,0.2,explore_reward
17,6,run01,CD,C,2,reward,matched,1.594197,,,0.5,0.5,,,explore_punish
18,6,run01,AB,A,1,reward,matched,1.602836,0.9,0.1,,,,,exploit_reward
19,6,run01,EF,E,1,punish,mismatched,1.600757,,,,,0.666666667,0.333333333,exploit_punish
20,6,run01,CD,D,2,reward,mismatched,1.605321,,,0.333333333,0.666666667,,,explore_reward
21,6,run01,EF,F,1,reward,mismatched,1.603255,,,,,0.571428571,0.428571429,exploit_punish
22,6,run01,EF,F,1,reward,mismatched,1.611262,,,,,0.5,0.5,exploit_reward
23,6,run01,CD,D,1,reward,mismatched,1.586718,,,0.25,0.75,,,exploit_reward
24,6,run01,EF,E,2,reward,matched,1.601187,,,,,0.555555556,0.444444444,explore_reward
25,6,run01,EF,F,1,punish,matched,1.605692,,,,,0.6,0.4,explore_reward
26,6,run02,AB,A,1,reward,matched,1.592675,0.909090909,0.090909091,,,,,exploit_reward
27,6,run02,CD,C,1,reward,matched,1.61041,,,0.4,0.6,,,explore_reward
28,6,run02,EF,F,1,punish,matched,1.604479,,,,,0.636363636,0.363636364,explore_punish
29,6,run02,AB,B,2,punish,matched,1.581409,0.916666667,0.083333333,,,,,explore_reward
30,6,run02,AB,A,1,reward,matched,1.58614,0.923076923,0.076923077,,,,,exploit_punish
31,6,run02,AB,A,2,reward,matched,1.583287,0.928571429,0.071428571,,,,,exploit_reward
32,6,run02,AB,B,2,punish,matched,1.566022,0.933333333,0.066666667,,,,,explore_reward
33,6,run02,AB,A,1,reward,matched,1.578231,0.9375,0.0625,,,,,exploit_punish
34,6,run02,EF,E,2,punish,mismatched,1.59394,,,,,0.583333333,0.416666667,exploit_punish
35,6,run02,AB,B,1,punish,matched,1.588285,0.941176471,0.058823529,,,,,explore_reward
36,6,run02,AB,B,1,reward,mismatched,1.58148,0.888888889,0.111111111,,,,,explore_punish
37,6,run02,AB,B,2,punish,matched,1.59356,0.894736842,0.105263158,,,,,exploit_reward
38,6,run02,AB,A,1,reward,matched,1.580441,0.9,0.1,,,,,exploit_punish
39,6,run02,AB,A,2,reward,matched,1.588544,0.904761905,0.095238095,,,,,exploit_reward
40,6,run02,EF,F,1,punish,matched,1.596446,,,,,0.615384615,0.384615385,exploit_punish
41,6,run02,CD,D,1,punish,matched,1.568078,,,0.5,0.5,,,explore_reward
42,6,run02,AB,B,1,punish,matched,1.590698,0.909090909,0.090909091,,,,,explore_reward
43,6,run02,CD,D,2,reward,mismatched,1.592111,,,0.428571429,0.571428571,,,explore_punish
44,6,run02,EF,F,1,reward,mismatched,1.598011,,,,,0.571428571,0.428571429,explore_punish
45,6,run02,CD,D,2,punish,matched,1.600814,,,0.5,0.5,,,exploit_reward
46,6,run02,EF,F,2,reward,mismatched,1.597932,,,,,0.533333333,0.466666667,exploit_reward
47,6,run02,AB,B,1,punish,matched,1.598251,0.913043478,0.086956522,,,,,explore_punish
48,6,run02,AB,B,1,reward,mismatched,1.584259,0.875,0.125,,,,,explore_punish
49,6,run02,EF,F,2,punish,matched,1.584932,,,,,0.5625,0.4375,exploit_reward
50,6,run02,AB,A,1,reward,matched,1.600477,0.88,0.12,,,,,explore_reward
51,6,run02,CD,C,2,reward,matched,1.587586,,,0.555555556,0.444444444,,,exploit_punish
52,6,run03,EF,F,1,reward,mismatched,1.574846,,,,,0.529411765,0.470588235,explore_punish
53,6,run03,AB,A,1,reward,matched,1.613966,0.884615385,0.115384615,,,,,exploit_reward
54,6,run03,AB,A,1,reward,matched,1.604453,0.888888889,0.111111111,,,,,exploit_reward
55,6,run03,CD,D,2,punish,matched,1.589809,,,0.6,0.4,,,explore_reward
56,6,run03,CD,D,2,punish,matched,1.59242,,,0.636363636,0.363636364,,,explore_punish
57,6,run03,EF,E,2,reward,matched,1.582329,,,,,0.555555556,0.444444444,explore_reward
58,6,run03,EF,F,1,punish,matched,1.599178,,,,,0.578947368,0.421052632,explore_reward
59,6,run03,CD,D,2,punish,matched,1.59921,,,0.666666667,0.333333333,,,explore_punish
60,6,run03,AB,A,2,reward,matched,1.587824,0.892857143,0.107142857,,,,,exploit_reward
61,6,run03,AB,A,1,reward,matched,1.580411,0.896551724,0.103448276,,,,,exploit_reward
62,6,run03,CD,C,2,reward,matched,1.600884,,,0.692307692,0.307692308,,,exploit_punish
63,6,run03,CD,C,2,reward,matched,1.594786,,,0.714285714,0.285714286,,,exploit_reward
64,6,run03,AB,B,2,reward,mismatched,1.59516,0.866666667,0.133333333,,,,,explore_reward
65,6,run03,AB,B,1,punish,matched,1.587302,0.870967742,0.129032258,,,,,exploit_reward
66,6,run03,AB,B,1,punish,matched,1.594421,0.875,0.125,,,,,explore_punish
67,6,run03,CD,C,2,reward,matched,1.591467,,,0.733333333,0.266666667,,,exploit_reward
68,6,run03,AB,B,1,punish,matched,1.589849,0.878787879,0.121212121,,,,,explore_punish
69,6,run03,EF,F,1,punish,matched,1.594294,,,,,0.6,0.4,explore_punish
70,6,run03,AB,A,1,reward,matched,1.571609,0.882352941,0.117647059,,,,,exploit_punish
71,6,run03,CD,D,2,reward,mismatched,1.587461,,,0.6875,0.3125,,,explore_reward
72,6,run03,AB,A,1,reward,matched,1.586461,0.885714286,0.114285714,,,,,exploit_reward
73,6,run03,EF,F,2,punish,matched,1.591742,,,,,0.619047619,0.380952381,explore_punish
74,6,run03,CD,D,2,punish,matched,1.589963,,,0.705882353,0.294117647,,,exploit_reward
75,6,run03,CD,C,2,reward,matched,1.598625,,,0.722222222,0.277777778,,,exploit_punish
76,6,run03,CD,D,2,punish,matched,1.582118,,,0.736842105,0.263157895,,,explore_reward
77,6,run03,AB,B,1,punish,matched,1.600465,0.888888889,0.111111111,,,,,explore_reward
78,6,run04,CD,D,2,punish,matched,1.593211,,,0.75,0.25,,,explore_punish
79,6,run04,EF,F,1,reward,mismatched,1.606644,,,,,0.590909091,0.409090909,explore_punish
80,6,run04,EF,E,2,punish,mismatched,1.605255,,,,,0.565217391,0.434782609,explore_reward
81,6,run04,CD,C,1,punish,mismatched,1.59736,,,0.714285714,0.285714286,,,exploit_punish
82,6,run04,CD,D,1,punish,matched,1.583937,,,0.727272727,0.272727273,,,exploit_punish
83,6,run04,EF,E,1,reward,matched,1.597252,,,,,0.583333333,0.416666667,explore_punish
84,6,run04,CD,D,1,punish,matched,1.586897,,,0.739130435,0.260869565,,,explore_punish
85,6,run04,AB,B,2,punish,matched,1.583383,0.891891892,0.108108108,,,,,explore_punish
86,6,run04,AB,B,1,punish,matched,1.586005,0.894736842,0.105263158,,,,,explore_punish
87,6,run04,EF,E,1,reward,matched,1.586147,,,,,0.6,0.4,exploit_reward
88,6,run04,AB,A,2,reward,matched,1.586453,0.897435897,0.102564103,,,,,exploit_punish
89,6,run04,EF,E,1,punish,mismatched,1.583838,,,,,0.576923077,0.423076923,exploit_reward
90,6,run04,CD,C,1,reward,matched,1.584603,,,0.75,0.25,,,exploit_punish
91,6,run04,AB,A,2,reward,matched,1.576654,0.9,0.1,,,,,exploit_reward
92,6,run04,EF,E,2,reward,matched,1.570156,,,,,0.592592593,0.407407407,explore_punish
93,6,run04,EF,F,1,punish,matched,1.588034,,,,,0.607142857,0.392857143,explore_reward
94,6,run04,CD,C,2,reward,matched,1.590046,,,0.76,0.24,,,exploit_reward
95,6,run04,AB,B,2,reward,mismatched,1.587583,0.87804878,0.12195122,,,,,explore_reward
96,6,run04,EF,F,1,punish,matched,1.582592,,,,,0.620689655,0.379310345,explore_punish
97,6,run04,CD,D,2,punish,matched,1.589716,,,0.769230769,0.230769231,,,explore_reward
98,6,run04,EF,F,2,reward,mismatched,1.581133,,,,,0.6,0.4,explore_punish
99,6,run04,EF,F,1,punish,matched,1.56447,,,,,0.612903226,0.387096774,exploit_reward
100,6,run04,EF,E,1,reward,matched,1.587203,,,,,0.625,0.375,exploit_punish
101,6,run04,CD,C,1,reward,matched,1.58556,,,0.777777778,0.222222222,,,exploit_punish
102,6,run04,EF,E,2,reward,matched,1.594694,,,,,0.636363636,0.363636364,exploit_reward
103,6,run04,EF,F,1,punish,matched,1.592977,,,,,0.647058824,0.352941176,explore_reward
0,7,run01,CD,Miss,Miss,Miss,Miss,Miss,,,,,,,
1,7,run01,EF,E,1,reward,matched,1.559935,,,,,1,0,
2,7,run01,CD,D,2,punish,matched,1.593096,,,1,0,,,miss_response
3,7,run01,CD,Miss,Miss,Miss,Miss,Miss,,,,,,,miss_response
4,7,run01,CD,D,1,punish,matched,1.586476,,,1,0,,,miss_response
5,7,run01,CD,C,2,reward,matched,1.599143,,,1,0,,,exploit_punish
6,7,run01,EF,F,2,punish,matched,1.603052,,,,,1,0,explore_reward
7,7,run01,EF,F,1,reward,mismatched,1.60982,,,,,0.666666667,0.333333333,explore_punish
8,7,run01,AB,B,2,reward,mismatched,1.587208,0,1,,,,,
9,7,run01,CD,D,1,punish,matched,1.605575,,,1,0,,,explore_reward
10,7,run01,CD,D,2,punish,matched,1.577827,,,1,0,,,explore_punish
11,7,run01,CD,D,1,punish,matched,1.587363,,,1,0,,,explore_punish
12,7,run01,CD,C,2,reward,matched,1.592255,,,1,0,,,exploit_punish
13,7,run01,CD,C,1,reward,matched,1.600934,,,1,0,,,exploit_reward
14,7,run01,AB,B,1,reward,mismatched,1.590639,0,1,,,,,exploit_reward
15,7,run01,AB,A,2,reward,matched,1.583438,0.333333333,0.666666667,,,,,explore_reward
16,7,run01,AB,B,1,punish,matched,1.587136,0.5,0.5,,,,,explore_reward
17,7,run01,AB,A,1,reward,matched,1.587136,0.6,0.4,,,,,exploit_punish
18,7,run01,CD,D,1,punish,matched,1.592404,,,1,0,,,explore_reward
19,7,run01,AB,A,2,punish,mismatched,1.58604,0.5,0.5,,,,,exploit_reward
20,7,run01,CD,D,2,reward,mismatched,1.590103,,,0.9,0.1,,,explore_punish
21,7,run01,CD,C,1,reward,matched,1.600119,,,0.909090909,0.090909091,,,explore_reward
22,7,run01,AB,B,2,punish,matched,1.582591,0.571428571,0.428571429,,,,,exploit_punish
23,7,run01,AB,A,2,punish,mismatched,1.587276,0.5,0.5,,,,,exploit_punish
24,7,run01,AB,B,1,punish,matched,1.584567,0.555555556,0.444444444,,,,,exploit_punish
25,7,run01,EF,F,2,reward,mismatched,1.605909,,,,,0.5,0.5,exploit_reward
26,7,run02,AB,B,1,reward,mismatched,1.583794,0.5,0.5,,,,,explore_punish
27,7,run02,CD,D,1,punish,matched,1.60574,,,0.916666667,0.083333333,,,explore_reward
28,7,run02,EF,E,2,reward,matched,1.566414,,,,,0.6,0.4,explore_reward
29,7,run02,AB,A,1,punish,mismatched,1.587958,0.454545455,0.545454545,,,,,explore_reward
30,7,run02,CD,D,1,punish,matched,1.595192,,,0.923076923,0.076923077,,,explore_punish
31,7,run02,CD,C,2,reward,matched,1.592134,,,0.928571429,0.071428571,,,exploit_punish
32,7,run02,CD,D,1,punish,matched,1.561871,,,0.933333333,0.066666667,,,explore_reward
33,7,run02,CD,Miss,Miss,Miss,Miss,Miss,,,,,,,miss_response
34,7,run02,AB,A,2,punish,mismatched,1.587148,0.416666667,0.583333333,,,,,explore_punish
35,7,run02,CD,C,1,reward,matched,1.5812,,,0.9375,0.0625,,,miss_response
36,7,run02,CD,C,1,punish,mismatched,1.606417,,,0.882352941,0.117647059,,,exploit_reward
37,7,run02,AB,A,2,reward,matched,1.572998,0.461538462,0.538461538,,,,,explore_punish
38,7,run02,AB,B,2,punish,matched,1.591775,0.5,0.5,,,,,explore_reward
39,7,run02,CD,C,1,reward,matched,1.599686,,,0.888888889,0.111111111,,,explore_punish
40,7,run02,CD,C,2,reward,matched,1.577812,,,0.894736842,0.105263158,,,exploit_reward
41,7,run02,CD,C,2,reward,matched,1.578821,,,0.9,0.1,,,exploit_reward
42,7,run02,CD,Miss,Miss,Miss,Miss,Miss,,,,,,,miss_response
43,7,run02,AB,B,2,reward,mismatched,1.589983,0.466666667,0.533333333,,,,,explore_punish
44,7,run02,EF,F,1,reward,mismatched,1.581929,,,,,0.5,0.5,explore_reward
45,7,run02,AB,A,1,punish,mismatched,1.581482,0.4375,0.5625,,,,,explore_reward
46,7,run02,AB,Miss,Miss,Miss,Miss,Miss,,,,,,,miss_response
47,7,run02,CD,D,1,reward,mismatched,1.580496,,,0.857142857,0.142857143,,,miss_response
48,7,run02,EF,F,2,punish,matched,1.579967,,,,,0.571428571,0.428571429,exploit_reward
49,7,run02,AB,B,1,punish,matched,1.579119,0.470588235,0.529411765,,,,,miss_response
50,7,run02,EF,E,2,reward,matched,1.579044,,,,,0.625,0.375,exploit_punish
51,7,run02,AB,Miss,Miss,Miss,Miss,Miss,,,,,,,miss_response
52,7,run03,AB,A,2,punish,mismatched,1.592448,0.444444444,0.555555556,,,,,miss_response
53,7,run03,AB,B,1,reward,mismatched,1.603766,0.421052632,0.578947368,,,,,exploit_punish
54,7,run03,AB,A,2,punish,mismatched,1.589206,0.4,0.6,,,,,explore_reward
55,7,run03,AB,B,2,punish,matched,1.585835,0.428571429,0.571428571,,,,,exploit_punish
56,7,run03,CD,D,2,punish,matched,1.599412,,,0.863636364,0.136363636,,,exploit_reward
57,7,run03,EF,F,2,reward,mismatched,1.556227,,,,,0.555555556,0.444444444,explore_reward
58,7,run03,CD,D,2,punish,matched,1.591993,,,0.869565217,0.130434783,,,explore_punish
59,7,run03,CD,C,1,reward,matched,1.582443,,,0.875,0.125,,,exploit_punish
60,7,run03,CD,C,1,reward,matched,1.579153,,,0.88,0.12,,,exploit_reward
61,7,run03,CD,Miss,Miss,Miss,Miss,Miss,,,,,,,miss_response
62,7,run03,CD,D,1,reward,mismatched,1.578313,,,0.846153846,0.153846154,,,miss_response
63,7,run03,EF,F,2,punish,matched,1.57923,,,,,0.6,0.4,exploit_reward
64,7,run03,EF,Miss,Miss,Miss,Miss,Miss,,,,,,,miss_response
65,7,run03,CD,D,2,punish,matched,1.594281,,,0.851851852,0.148148148,,,exploit_reward
66,7,run03,AB,A,1,reward,matched,1.581096,0.454545455,0.545454545,,,,,exploit_punish
67,7,run03,AB,B,2,punish,matched,1.580874,0.47826087,0.52173913,,,,,explore_reward
68,7,run03,CD,D,2,reward,mismatched,1.603952,,,0.821428571,0.178571429,,,explore_punish
69,7,run03,CD,C,2,reward,matched,1.5696,,,0.827586207,0.172413793,,,explore_reward
70,7,run03,EF,E,1,punish,mismatched,1.599218,,,,,0.545454545,0.454545455,miss_response
71,7,run03,AB,A,2,reward,matched,1.573937,0.5,0.5,,,,,exploit_punish
72,7,run03,EF,F,2,reward,mismatched,1.592031,,,,,0.5,0.5,exploit_punish
73,7,run03,EF,F,1,punish,matched,1.583045,,,,,0.538461538,0.461538462,exploit_reward
74,7,run03,AB,A,1,punish,mismatched,1.581465,0.48,0.52,,,,,exploit_reward
75,7,run03,CD,C,1,reward,matched,1.597598,,,0.833333333,0.166666667,,,exploit_reward
76,7,run03,EF,E,2,punish,mismatched,1.588373,,,,,0.5,0.5,exploit_punish
77,7,run03,CD,C,1,reward,matched,1.585808,,,0.838709677,0.161290323,,,exploit_reward
78,7,run04,CD,D,2,punish,matched,1.598391,,,0.84375,0.15625,,,explore_reward
79,7,run04,EF,E,1,punish,mismatched,1.604908,,,,,0.466666667,0.533333333,explore_punish
80,7,run04,EF,E,2,punish,mismatched,1.609779,,,,,0.4375,0.5625,explore_punish
81,7,run04,CD,D,1,punish,matched,1.591053,,,0.848484848,0.151515152,,,explore_punish
82,7,run04,AB,B,2,punish,matched,1.591761,0.5,0.5,,,,,exploit_punish
83,7,run04,EF,E,1,reward,matched,1.58427,,,,,0.470588235,0.529411765,explore_punish
84,7,run04,AB,B,2,punish,matched,1.582659,0.518518519,0.481481481,,,,,explore_punish
85,7,run04,EF,E,1,reward,matched,1.588188,,,,,0.5,0.5,exploit_reward
86,7,run04,CD,D,2,reward,mismatched,1.591098,,,0.823529412,0.176470588,,,explore_punish
87,7,run04,CD,D,2,punish,matched,1.597198,,,0.828571429,0.171428571,,,exploit_reward
88,7,run04,CD,C,2,punish,mismatched,1.595422,,,0.805555556,0.194444444,,,exploit_punish
89,7,run04,AB,B,1,punish,matched,1.595386,0.535714286,0.464285714,,,,,explore_punish
90,7,run04,AB,B,2,punish,matched,1.594487,0.551724138,0.448275862,,,,,explore_punish
91,7,run04,CD,D,1,punish,matched,1.58022,,,0.810810811,0.189189189,,,exploit_punish
92,7,run04,AB,B,2,punish,matched,1.591362,0.566666667,0.433333333,,,,,explore_punish
93,7,run04,AB,A,1,reward,matched,1.593765,0.580645161,0.419354839,,,,,exploit_punish
94,7,run04,AB,B,1,punish,matched,1.596074,0.59375,0.40625,,,,,explore_reward
95,7,run04,EF,F,2,punish,matched,1.591765,,,,,0.526315789,0.473684211,explore_reward
96,7,run04,AB,B,1,punish,matched,1.587016,0.606060606,0.393939394,,,,,explore_punish
97,7,run04,CD,D,1,reward,mismatched,1.594264,,,0.789473684,0.210526316,,,explore_punish
98,7,run04,AB,A,2,reward,matched,1.585053,0.617647059,0.382352941,,,,,exploit_punish
99,7,run04,EF,F,1,reward,mismatched,1.586429,,,,,0.5,0.5,explore_punish
100,7,run04,EF,E,2,punish,mismatched,1.600473,,,,,0.476190476,0.523809524,explore_reward
101,7,run04,EF,Miss,Miss,Miss,Miss,Miss,,,,,,,miss_response
102,7,run04,CD,D,1,reward,mismatched,1.564963,,,0.769230769,0.230769231,,,exploit_reward
103,7,run04,EF,E,2,reward,matched,1.581184,,,,,0.5,0.5,miss_response
0,8,run01,EF,Miss,Miss,Miss,Miss,Miss,,,,,,,
1,8,run01,AB,A,1,reward,matched,1.579758,1,0,,,,,
2,8,run01,CD,C,1,punish,mismatched,1.56984,,,0,1,,,
3,8,run01,AB,B,2,reward,mismatched,1.57243,0.5,0.5,,,,,explore_reward
4,8,run01,AB,Miss,Miss,Miss,Miss,Miss,,,,,,,miss_response
5,8,run01,AB,B,1,punish,matched,1.569211,0.666666667,0.333333333,,,,,miss_response
6,8,run01,CD,D,1,punish,matched,1.593317,,,0.5,0.5,,,exploit_punish
7,8,run01,AB,B,1,punish,matched,1.583714,0.75,0.25,,,,,explore_punish
8,8,run01,CD,D,2,punish,matched,1.590084,,,0.666666667,0.333333333,,,explore_punish
9,8,run01,CD,C,1,reward,matched,1.597059,,,0.75,0.25,,,exploit_punish
10,8,run01,CD,D,1,punish,matched,1.610256,,,0.8,0.2,,,explore_reward
11,8,run01,EF,E,2,punish,mismatched,1.588065,,,,,0,1,miss_response
12,8,run01,AB,Miss,Miss,Miss,Miss,Miss,,,,,,,miss_response
13,8,run01,EF,E,2,reward,matched,1.59249,,,,,0.5,0.5,explore_punish
14,8,run01,EF,F,1,reward,mismatched,1.590818,,,,,0.333333333,0.666666667,explore_reward
15,8,run01,EF,F,2,punish,matched,1.598754,,,,,0.5,0.5,exploit_reward
16,8,run01,CD,D,1,reward,mismatched,1.580251,,,0.666666667,0.333333333,,,explore_punish
17,8,run01,AB,B,2,punish,matched,1.587982,0.8,0.2,,,,,miss_response
18,8,run01,EF,E,1,punish,mismatched,1.580308,,,,,0.4,0.6,exploit_punish
19,8,run01,EF,F,2,punish,matched,1.590625,,,,,0.5,0.5,exploit_punish
20,8,run01,CD,Miss,Miss,Miss,Miss,Miss,,,,,,,miss_response
21,8,run01,EF,E,1,punish,mismatched,1.599272,,,,,0.428571429,0.571428571,exploit_punish
22,8,run01,CD,C,2,punish,mismatched,1.56803,,,0.571428571,0.428571429,,,miss_response
23,8,run01,EF,E,1,reward,matched,1.598728,,,,,0.5,0.5,explore_punish
24,8,run01,EF,E,1,reward,matched,1.60168,,,,,0.555555556,0.444444444,exploit_reward
25,8,run01,AB,B,1,punish,matched,1.598286,0.833333333,0.166666667,,,,,explore_punish
26,8,run02,AB,A,1,reward,matched,1.574717,0.857142857,0.142857143,,,,,exploit_punish
27,8,run02,AB,B,1,reward,mismatched,1.61037,0.75,0.25,,,,,explore_reward
28,8,run02,EF,Miss,Miss,Miss,Miss,Miss,,,,,,,explore_reward
29,8,run02,AB,B,1,punish,matched,1.612647,0.777777778,0.222222222,,,,,exploit_reward
30,8,run02,AB,Miss,Miss,Miss,Miss,Miss,,,,,,,miss_response
31,8,run02,AB,B,1,punish,matched,1.582629,0.8,0.2,,,,,miss_response
32,8,run02,CD,C,2,reward,matched,1.568239,,,0.625,0.375,,,explore_punish
33,8,run02,CD,D,1,punish,matched,1.596204,,,0.666666667,0.333333333,,,explore_reward
34,8,run02,EF,Miss,Miss,Miss,Miss,Miss,,,,,,,miss_response
35,8,run02,EF,E,2,reward,matched,1.577767,,,,,0.6,0.4,miss_response
36,8,run02,EF,F,2,punish,matched,1.584241,,,,,0.636363636,0.363636364,explore_reward
37,8,run02,AB,A,1,reward,matched,1.594394,0.818181818,0.181818182,,,,,exploit_punish
38,8,run02,CD,C,1,reward,matched,1.597875,,,0.7,0.3,,,exploit_punish
39,8,run02,EF,E,1,reward,matched,1.575303,,,,,0.666666667,0.333333333,exploit_punish
40,8,run02,AB,B,2,reward,mismatched,1.582851,0.75,0.25,,,,,explore_reward
41,8,run02,EF,F,1,punish,matched,1.588662,,,,,0.692307692,0.307692308,explore_reward
42,8,run02,AB,A,2,reward,matched,1.590275,0.769230769,0.230769231,,,,,explore_reward
43,8,run02,EF,E,2,reward,matched,1.58666,,,,,0.714285714,0.285714286,exploit_punish
44,8,run02,EF,F,1,punish,matched,1.588473,,,,,0.733333333,0.266666667,explore_reward
45,8,run02,CD,D,2,reward,mismatched,1.583286,,,0.636363636,0.363636364,,,explore_reward
46,8,run02,CD,D,2,punish,matched,1.591263,,,0.666666667,0.333333333,,,exploit_reward
47,8,run02,EF,F,1,reward,mismatched,1.583982,,,,,0.6875,0.3125,explore_punish
48,8,run02,CD,C,1,punish,mismatched,1.599135,,,0.615384615,0.384615385,,,exploit_punish
49,8,run02,AB,A,1,reward,matched,1.600068,0.785714286,0.214285714,,,,,exploit_reward
50,8,run02,AB,A,1,reward,matched,1.585574,0.8,0.2,,,,,exploit_reward
51,8,run02,CD,D,1,reward,mismatched,1.585486,,,0.571428571,0.428571429,,,exploit_punish
52,8,run03,EF,F,2,punish,matched,1.577018,,,,,0.705882353,0.294117647,exploit_reward
53,8,run03,EF,F,1,punish,matched,1.602989,,,,,0.722222222,0.277777778,explore_punish
54,8,run03,AB,A,2,reward,matched,1.605617,0.8125,0.1875,,,,,exploit_reward
55,8,run03,EF,E,2,reward,matched,1.616888,,,,,0.736842105,0.263157895,exploit_punish
56,8,run03,EF,F,2,punish,matched,1.597842,,,,,0.75,0.25,explore_reward
57,8,run03,AB,B,2,punish,matched,1.605582,0.823529412,0.176470588,,,,,explore_reward
58,8,run03,EF,F,1,punish,matched,1.590475,,,,,0.761904762,0.238095238,explore_punish
59,8,run03,CD,D,2,punish,matched,1.592103,,,0.6,0.4,,,exploit_reward
60,8,run03,AB,A,2,reward,matched,1.577058,0.833333333,0.166666667,,,,,exploit_punish
61,8,run03,EF,F,2,punish,matched,1.599996,,,,,0.772727273,0.227272727,explore_punish
62,8,run03,AB,B,2,reward,mismatched,1.591012,0.789473684,0.210526316,,,,,explore_reward
63,8,run03,CD,C,1,reward,matched,1.595816,,,0.625,0.375,,,exploit_punish
64,8,run03,CD,C,2,reward,matched,1.592402,,,0.647058824,0.352941176,,,exploit_reward
65,8,run03,CD,D,1,reward,mismatched,1.577374,,,0.611111111,0.388888889,,,explore_reward
66,8,run03,AB,B,1,punish,matched,1.570866,0.8,0.2,,,,,exploit_reward
67,8,run03,EF,F,2,punish,matched,1.586197,,,,,0.782608696,0.217391304,explore_punish
68,8,run03,AB,A,1,punish,mismatched,1.575494,0.761904762,0.238095238,,,,,exploit_punish
69,8,run03,EF,E,1,reward,matched,1.585297,,,,,0.791666667,0.208333333,exploit_punish
70,8,run03,CD,C,1,reward,matched,1.593767,,,0.631578947,0.368421053,,,explore_reward
71,8,run03,CD,C,2,reward,matched,1.600807,,,0.65,0.35,,,exploit_reward
72,8,run03,EF,E,1,reward,matched,1.591898,,,,,0.8,0.2,exploit_reward
73,8,run03,CD,C,2,reward,matched,1.598515,,,0.666666667,0.333333333,,,exploit_reward
74,8,run03,EF,E,2,reward,matched,1.580763,,,,,0.807692308,0.192307692,exploit_reward
75,8,run03,AB,B,2,punish,matched,1.597285,0.772727273,0.227272727,,,,,exploit_punish
76,8,run03,CD,D,2,punish,matched,1.587152,,,0.681818182,0.318181818,,,explore_reward
77,8,run03,AB,A,1,reward,matched,1.588796,0.782608696,0.217391304,,,,,exploit_punish
78,8,run04,AB,A,2,reward,matched,1.588006,0.791666667,0.208333333,,,,,exploit_reward
79,8,run04,EF,F,1,reward,mismatched,1.587546,,,,,0.777777778,0.222222222,explore_reward
80,8,run04,CD,C,2,reward,matched,1.619096,,,0.695652174,0.304347826,,,exploit_punish
81,8,run04,EF,F,1,reward,mismatched,1.59816,,,,,0.75,0.25,exploit_reward
82,8,run04,CD,C,1,reward,matched,1.597274,,,0.708333333,0.291666667,,,exploit_reward
83,8,run04,AB,A,2,reward,matched,1.593766,0.8,0.2,,,,,exploit_reward
84,8,run04,CD,D,2,reward,mismatched,1.584715,,,0.68,0.32,,,explore_reward
85,8,run04,AB,A,2,reward,matched,1.579539,0.807692308,0.192307692,,,,,exploit_reward
86,8,run04,EF,F,2,reward,mismatched,1.580945,,,,,0.724137931,0.275862069,exploit_reward
87,8,run04,CD,C,1,punish,mismatched,1.591553,,,0.653846154,0.346153846,,,explore_reward
88,8,run04,EF,Miss,Miss,Miss,Miss,Miss,,,,,,,miss_response
89,8,run04,CD,D,2,punish,matched,1.563606,,,0.666666667,0.333333333,,,exploit_punish
90,8,run04,AB,B,2,reward,mismatched,1.589571,0.777777778,0.222222222,,,,,explore_reward
91,8,run04,AB,B,2,reward,mismatched,1.587261,0.75,0.25,,,,,exploit_reward
92,8,run04,EF,E,1,reward,matched,1.588206,,,,,0.733333333,0.266666667,miss_response
93,8,run04,EF,F,1,reward,mismatched,1.599763,,,,,0.709677419,0.290322581,explore_reward
94,8,run04,EF,F,1,reward,mismatched,1.587589,,,,,0.6875,0.3125,exploit_reward
95,8,run04,CD,C,1,punish,mismatched,1.583592,,,0.642857143,0.357142857,,,exploit_punish
96,8,run04,CD,D,1,punish,matched,1.592986,,,0.655172414,0.344827586,,,exploit_punish
97,8,run04,CD,D,1,reward,mismatched,1.60228,,,0.633333333,0.366666667,,,explore_punish
98,8,run04,EF,F,1,reward,mismatched,1.565034,,,,,0.666666667,0.333333333,exploit_reward
99,8,run04,AB,B,1,punish,matched,1.593285,0.75862069,0.24137931,,,,,exploit_reward
100,8,run04,EF,F,2,punish,matched,1.583772,,,,,0.676470588,0.323529412,exploit_reward
101,8,run04,CD,Miss,Miss,Miss,Miss,Miss,,,,,,,explore_reward
102,8,run04,EF,E,2,punish,mismatched,1.587245,,,,,0.657142857,0.342857143,exploit_punish
103,8,run04,AB,B,1,reward,mismatched,1.591681,0.733333333,0.266666667,,,,,explore_punish
0,9,run01,AB,B,1,punish,matched,1.576953,1,0,,,,,
1,9,run01,EF,Miss,Miss,Miss,Miss,Miss,,,,,,,
2,9,run01,AB,B,1,punish,matched,1.571685,1,0,,,,,explore_punish
3,9,run01,AB,A,2,reward,matched,1.591632,1,0,,,,,exploit_punish
4,9,run01,CD,C,2,reward,matched,1.585818,,,1,0,,,
5,9,run01,EF,E,2,reward,matched,1.592477,,,,,1,0,miss_response
6,9,run01,CD,C,1,reward,matched,1.598699,,,1,0,,,exploit_reward
7,9,run01,EF,F,2,reward,mismatched,1.602176,,,,,0.5,0.5,explore_reward
8,9,run01,CD,D,2,reward,mismatched,1.579971,,,0.666666667,0.333333333,,,explore_reward
9,9,run01,CD,C,1,punish,mismatched,1.581856,,,0.5,0.5,,,explore_reward
10,9,run01,AB,B,2,punish,matched,1.600133,1,0,,,,,explore_reward
11,9,run01,EF,F,1,punish,matched,1.597689,,,,,0.666666667,0.333333333,exploit_reward
12,9,run01,AB,B,2,punish,matched,1.580984,1,0,,,,,explore_punish
13,9,run01,AB,A,2,punish,mismatched,1.579347,0.833333333,0.166666667,,,,,exploit_punish
14,9,run01,CD,C,2,punish,mismatched,1.595485,,,0.4,0.6,,,explore_punish
15,9,run01,EF,F,2,punish,matched,1.593393,,,,,0.75,0.25,explore_punish
16,9,run01,AB,A,1,punish,mismatched,1.589197,0.714285714,0.285714286,,,,,explore_punish
17,9,run01,EF,F,1,punish,matched,1.555689,,,,,0.8,0.2,explore_punish
18,9,run01,EF,E,1,reward,matched,1.572139,,,,,0.833333333,0.166666667,exploit_punish
19,9,run01,CD,C,2,reward,matched,1.596276,,,0.5,0.5,,,explore_punish
20,9,run01,EF,Miss,Miss,Miss,Miss,Miss,,,,,,,miss_response
21,9,run01,EF,F,1,punish,matched,1.584088,,,,,0.857142857,0.142857143,miss_response
22,9,run01,AB,B,1,punish,matched,1.591025,0.75,0.25,,,,,exploit_punish
23,9,run01,EF,F,2,reward,mismatched,1.565303,,,,,0.75,0.25,explore_punish
24,9,run01,EF,F,1,punish,matched,1.600842,,,,,0.777777778,0.222222222,exploit_reward
25,9,run01,EF,Miss,Miss,Miss,Miss,Miss,,,,,,,exploit_punish
26,9,run02,AB,B,2,punish,matched,1.571475,0.777777778,0.222222222,,,,,explore_punish
27,9,run02,AB,A,1,reward,matched,1.587637,0.8,0.2,,,,,exploit_punish
28,9,run02,EF,Miss,Miss,Miss,Miss,Miss,,,,,,,miss_response
29,9,run02,AB,Miss,Miss,Miss,Miss,Miss,,,,,,,miss_response
30,9,run02,AB,A,1,reward,matched,1.582175,0.818181818,0.181818182,,,,,miss_response
31,9,run02,EF,Miss,Miss,Miss,Miss,Miss,,,,,,,miss_response
32,9,run02,EF,F,2,reward,mismatched,1.577788,,,,,0.7,0.3,miss_response
33,9,run02,AB,A,2,reward,matched,1.585211,0.833333333,0.166666667,,,,,exploit_reward
34,9,run02,CD,C,2,reward,matched,1.585776,,,0.571428571,0.428571429,,,exploit_reward
35,9,run02,AB,B,1,reward,mismatched,1.581466,0.769230769,0.230769231,,,,,explore_reward
36,9,run02,AB,B,2,punish,matched,1.578526,0.785714286,0.214285714,,,,,exploit_reward
37,9,run02,EF,F,1,punish,matched,1.590412,,,,,0.727272727,0.272727273,exploit_reward
38,9,run02,CD,D,1,reward,mismatched,1.592249,,,0.5,0.5,,,explore_reward
39,9,run02,AB,B,1,reward,mismatched,1.583276,0.733333333,0.266666667,,,,,explore_punish
40,9,run02,EF,F,2,punish,matched,1.578431,,,,,0.75,0.25,explore_punish
41,9,run02,AB,B,1,punish,matched,1.578372,0.75,0.25,,,,,exploit_reward
42,9,run02,CD,D,2,punish,matched,1.586898,,,0.555555556,0.444444444,,,exploit_reward
43,9,run02,EF,E,2,punish,mismatched,1.603207,,,,,0.692307692,0.307692308,exploit_punish
44,9,run02,CD,C,1,reward,matched,1.584914,,,0.6,0.4,,,exploit_punish
45,9,run02,AB,B,2,reward,mismatched,1.583156,0.705882353,0.294117647,,,,,explore_punish
46,9,run02,AB,A,1,reward,matched,1.587658,0.722222222,0.277777778,,,,,explore_reward
47,9,run02,AB,B,1,punish,matched,1.581223,0.736842105,0.263157895,,,,,explore_reward
48,9,run02,AB,B,2,reward,mismatched,1.578196,0.7,0.3,,,,,explore_punish
49,9,run02,AB,B,2,punish,matched,1.578735,0.714285714,0.285714286,,,,,exploit_reward
50,9,run02,EF,F,2,punish,matched,1.58123,,,,,0.714285714,0.285714286,exploit_punish
51,9,run02,CD,C,1,punish,mismatched,1.581218,,,0.545454545,0.454545455,,,exploit_reward
52,9,run03,AB,Miss,Miss,Miss,Miss,Miss,,,,,,,miss_response
53,9,run03,EF,F,1,punish,matched,1.588852,,,,,0.733333333,0.266666667,explore_punish
54,9,run03,AB,B,2,punish,matched,1.582671,0.727272727,0.272727273,,,,,miss_response
55,9,run03,EF,F,1,punish,matched,1.599298,,,,,0.75,0.25,explore_punish
56,9,run03,CD,C,2,reward,matched,1.582241,,,0.583333333,0.416666667,,,explore_punish
57,9,run03,EF,E,1,punish,mismatched,1.589238,,,,,0.705882353,0.294117647,exploit_punish
58,9,run03,AB,A,2,reward,matched,1.580398,0.739130435,0.260869565,,,,,exploit_punish
59,9,run03,CD,D,2,punish,matched,1.598438,,,0.615384615,0.384615385,,,explore_reward
60,9,run03,CD,C,2,reward,matched,1.593686,,,0.642857143,0.357142857,,,exploit_punish
61,9,run03,EF,F,1,reward,mismatched,1.568529,,,,,0.666666667,0.333333333,exploit_punish
62,9,run03,AB,B,1,punish,matched,1.56101,0.75,0.25,,,,,explore_reward
63,9,run03,AB,A,2,reward,matched,1.564431,0.76,0.24,,,,,exploit_punish
64,9,run03,EF,E,1,reward,matched,1.594201,,,,,0.684210526,0.315789474,explore_reward
65,9,run03,CD,C,2,punish,mismatched,1.594633,,,0.6,0.4,,,exploit_reward
66,9,run03,AB,A,1,reward,matched,1.588689,0.769230769,0.230769231,,,,,exploit_reward
67,9,run03,EF,F,2,reward,mismatched,1.579498,,,,,0.65,0.35,explore_reward
68,9,run03,AB,A,2,punish,mismatched,1.577265,0.740740741,0.259259259,,,,,exploit_reward
69,9,run03,AB,A,1,reward,matched,1.568207,0.75,0.25,,,,,explore_punish
70,9,run03,EF,F,2,reward,mismatched,1.593679,,,,,0.619047619,0.380952381,exploit_reward
71,9,run03,EF,F,1,punish,matched,1.59301,,,,,0.636363636,0.363636364,exploit_reward
72,9,run03,EF,E,2,reward,matched,1.574988,,,,,0.652173913,0.347826087,exploit_punish
73,9,run03,AB,A,2,reward,matched,1.583563,0.75862069,0.24137931,,,,,exploit_reward
74,9,run03,AB,A,2,reward,matched,1.579329,0.766666667,0.233333333,,,,,exploit_reward
75,9,run03,EF,E,2,reward,matched,1.582243,,,,,0.666666667,0.333333333,exploit_reward
76,9,run03,EF,F,1,reward,mismatched,1.595732,,,,,0.64,0.36,explore_reward
77,9,run03,AB,A,2,reward,matched,1.585702,0.774193548,0.225806452,,,,,exploit_reward
78,9,run04,EF,Miss,Miss,Miss,Miss,Miss,,,,,,,miss_response
79,9,run04,EF,F,1,punish,matched,1.560083,,,,,0.653846154,0.346153846,miss_response
80,9,run04,EF,E,1,reward,matched,1.57163,,,,,0.666666667,0.333333333,exploit_punish
81,9,run04,EF,E,2,punish,mismatched,1.56945,,,,,0.642857143,0.357142857,exploit_reward
82,9,run04,EF,Miss,Miss,Miss,Miss,Miss,,,,,,,miss_response
83,9,run04,AB,B,1,punish,matched,1.575684,0.78125,0.21875,,,,,explore_reward
84,9,run04,AB,Miss,Miss,Miss,Miss,Miss,,,,,,,exploit_punish
85,9,run04,CD,C,1,reward,matched,1.567854,,,0.625,0.375,,,explore_punish
86,9,run04,AB,Miss,Miss,Miss,Miss,Miss,,,,,,,miss_response
87,9,run04,AB,B,1,punish,matched,1.586127,0.787878788,0.212121212,,,,,miss_response
88,9,run04,CD,Miss,Miss,Miss,Miss,Miss,,,,,,,miss_response
89,9,run04,EF,F,2,reward,mismatched,1.583699,,,,,0.620689655,0.379310345,miss_response
90,9,run04,AB,B,1,punish,matched,1.592339,0.794117647,0.205882353,,,,,explore_punish
91,9,run04,AB,Miss,Miss,Miss,Miss,Miss,,,,,,,miss_response
92,9,run04,EF,F,2,reward,mismatched,1.592152,,,,,0.6,0.4,exploit_reward
93,9,run04,EF,E,2,punish,mismatched,1.573223,,,,,0.580645161,0.419354839,explore_reward
94,9,run04,EF,E,2,reward,matched,1.591079,,,,,0.59375,0.40625,explore_punish
95,9,run04,EF,F,1,reward,mismatched,1.587928,,,,,0.575757576,0.424242424,explore_reward
96,9,run04,AB,A,1,punish,mismatched,1.586579,0.771428571,0.228571429,,,,,miss_response
97,9,run04,AB,A,1,reward,matched,1.573689,0.777777778,0.222222222,,,,,explore_punish
98,9,run04,CD,C,2,punish,mismatched,1.583795,,,0.588235294,0.411764706,,,miss_response
99,9,run04,AB,B,1,punish,matched,1.583505,0.783783784,0.216216216,,,,,explore_reward
100,9,run04,CD,C,2,reward,matched,1.55629,,,0.611111111,0.388888889,,,explore_punish
101,9,run04,AB,B,1,punish,matched,1.586612,0.789473684,0.210526316,,,,,explore_punish
102,9,run04,CD,D,1,punish,matched,1.598785,,,0.631578947,0.368421053,,,explore_reward
103,9,run04,EF,E,1,punish,mismatched,1.580886,,,,,0.558823529,0.441176471,explore_reward
0,10,run01,EF,Miss,Miss,Miss,Miss,Miss,,,,,,,
1,10,run01,EF,E,1,punish,mismatched,1.587627,,,,,0,1,miss_response
2,10,run01,AB,B,2,punish,matched,1.586067,1,0,,,,,
3,10,run01,CD,C,1,reward,matched,1.590569,,,1,0,,,
4,10,run01,CD,C,1,reward,matched,1.593359,,,1,0,,,exploit_reward
5,10,run01,CD,Miss,Miss,Miss,Miss,Miss,,,,,,,miss_response
6,10,run01,CD,C,2,reward,matched,1.583019,,,1,0,,,miss_response
7,10,run01,EF,F,1,reward,mismatched,1.598725,,,,,0,1,exploit_punish
8,10,run01,CD,D,1,reward,mismatched,1.581458,,,0.75,0.25,,,explore_reward
9,10,run01,EF,E,1,reward,matched,1.596085,,,,,0.333333333,0.666666667,explore_reward
10,10,run01,EF,F,2,punish,matched,1.580139,,,,,0.5,0.5,explore_reward
11,10,run01,AB,A,1,reward,matched,1.578989,1,0,,,,,exploit_punish
12,10,run01,EF,F,1,punish,matched,1.594039,,,,,0.6,0.4,explore_punish
13,10,run01,CD,C,1,reward,matched,1.593084,,,0.8,0.2,,,explore_reward
14,10,run01,AB,A,2,reward,matched,1.592166,1,0,,,,,exploit_reward
15,10,run01,AB,A,2,reward,matched,1.592643,1,0,,,,,exploit_reward
16,10,run01,CD,D,2,punish,matched,1.589191,,,0.833333333,0.166666667,,,explore_reward
17,10,run01,EF,F,2,reward,mismatched,1.584566,,,,,0.5,0.5,explore_punish
18,10,run01,AB,B,2,reward,mismatched,1.581481,0.8,0.2,,,,,explore_reward
19,10,run01,CD,C,1,reward,matched,1.593408,,,0.857142857,0.142857143,,,exploit_punish
20,10,run01,EF,F,2,punish,matched,1.586285,,,,,0.571428571,0.428571429,exploit_reward
21,10,run01,CD,C,2,reward,matched,1.584599,,,0.875,0.125,,,exploit_reward
22,10,run01,CD,D,2,punish,matched,1.58708,,,0.888888889,0.111111111,,,explore_reward
23,10,run01,EF,F,1,punish,matched,1.583389,,,,,0.625,0.375,explore_punish
24,10,run01,CD,C,1,reward,matched,1.590815,,,0.9,0.1,,,exploit_punish
25,10,run01,AB,B,2,punish,matched,1.580299,0.833333333,0.166666667,,,,,exploit_reward
26,10,run02,EF,F,1,reward,mismatched,1.558608,,,,,0.555555556,0.444444444,explore_punish
27,10,run02,AB,B,1,punish,matched,1.59317,0.857142857,0.142857143,,,,,explore_punish
28,10,run02,CD,C,2,reward,matched,1.604507,,,0.909090909,0.090909091,,,exploit_reward
29,10,run02,CD,D,1,punish,matched,1.59471,,,0.916666667,0.083333333,,,explore_reward
30,10,run02,EF,E,1,reward,matched,1.58628,,,,,0.6,0.4,explore_reward
31,10,run02,AB,A,2,reward,matched,1.599347,0.875,0.125,,,,,exploit_punish
32,10,run02,EF,F,2,reward,mismatched,1.600644,,,,,0.545454545,0.454545455,explore_reward
33,10,run02,CD,D,1,punish,matched,1.593949,,,0.923076923,0.076923077,,,explore_punish
34,10,run02,EF,F,2,punish,matched,1.594235,,,,,0.583333333,0.416666667,exploit_reward
35,10,run02,CD,C,1,punish,mismatched,1.59078,,,0.857142857,0.142857143,,,exploit_punish
36,10,run02,CD,C,1,reward,matched,1.598531,,,0.866666667,0.133333333,,,explore_punish
37,10,run02,CD,C,1,reward,matched,1.594968,,,0.875,0.125,,,exploit_reward
38,10,run02,CD,C,2,reward,matched,1.605281,,,0.882352941,0.117647059,,,exploit_reward
39,10,run02,EF,F,1,punish,matched,1.587181,,,,,0.615384615,0.384615385,explore_punish
40,10,run02,EF,E,2,reward,matched,1.58642,,,,,0.642857143,0.357142857,exploit_punish
41,10,run02,CD,D,2,punish,matched,1.584919,,,0.888888889,0.111111111,,,explore_reward
42,10,run02,EF,E,1,reward,matched,1.590315,,,,,0.666666667,0.333333333,exploit_reward
43,10,run02,AB,B,1,punish,matched,1.601655,0.888888889,0.111111111,,,,,explore_reward
44,10,run02,AB,B,1,punish,matched,1.589367,0.9,0.1,,,,,explore_punish
45,10,run02,EF,E,1,reward,matched,1.600061,,,,,0.6875,0.3125,exploit_reward
46,10,run02,AB,B,1,reward,mismatched,1.60627,0.818181818,0.181818182,,,,,explore_punish
47,10,run02,AB,A,1,reward,matched,1.598551,0.833333333,0.166666667,,,,,explore_reward
48,10,run02,EF,E,1,reward,matched,1.600992,,,,,0.705882353,0.294117647,exploit_reward
49,10,run02,AB,A,1,punish,mismatched,1.594229,0.769230769,0.230769231,,,,,exploit_reward
50,10,run02,EF,F,1,punish,matched,1.586492,,,,,0.722222222,0.277777778,explore_reward
51,10,run02,AB,B,1,punish,matched,1.600442,0.785714286,0.214285714,,,,,exploit_punish
52,10,run03,AB,B,1,punish,matched,1.569513,0.8,0.2,,,,,explore_punish
53,10,run03,EF,F,1,punish,matched,1.570621,,,,,0.736842105,0.263157895,explore_punish
54,10,run03,CD,C,2,punish,mismatched,1.585903,,,0.842105263,0.157894737,,,exploit_punish
55,10,run03,EF,F,1,reward,mismatched,1.593965,,,,,0.7,0.3,explore_punish
56,10,run03,AB,A,1,reward,matched,1.578075,0.8125,0.1875,,,,,exploit_punish
57,10,run03,CD,C,1,punish,mismatched,1.599887,,,0.8,0.2,,,explore_punish
58,10,run03,CD,D,1,punish,matched,1.586221,,,0.80952381,0.19047619,,,exploit_punish
59,10,run03,CD,C,1,punish,mismatched,1.582004,,,0.772727273,0.227272727,,,exploit_punish
60,10,run03,AB,A,1,punish,mismatched,1.581311,0.764705882,0.235294118,,,,,exploit_reward
61,10,run03,EF,E,1,punish,mismatched,1.580054,,,,,0.666666667,0.333333333,explore_reward
62,10,run03,EF,F,2,reward,mismatched,1.58593,,,,,0.636363636,0.363636364,exploit_punish
63,10,run03,AB,A,1,reward,matched,1.576646,0.777777778,0.222222222,,,,,explore_punish
64,10,run03,EF,E,2,reward,matched,1.575588,,,,,0.652173913,0.347826087,explore_reward
65,10,run03,AB,B,2,punish,matched,1.587671,0.789473684,0.210526316,,,,,explore_reward
66,10,run03,CD,D,1,punish,matched,1.591052,,,0.782608696,0.217391304,,,exploit_punish
67,10,run03,EF,E,2,reward,matched,1.576781,,,,,0.666666667,0.333333333,exploit_reward
68,10,run03,CD,D,1,punish,matched,1.588639,,,0.791666667,0.208333333,,,explore_punish
69,10,run03,AB,B,2,punish,matched,1.577987,0.8,0.2,,,,,explore_punish
70,10,run03,AB,B,2,reward,mismatched,1.574417,0.761904762,0.238095238,,,,,explore_punish
71,10,run03,EF,E,2,reward,matched,1.586102,,,,,0.68,0.32,exploit_reward
72,10,run03,CD,C,2,punish,mismatched,1.605423,,,0.76,0.24,,,exploit_punish
73,10,run03,EF,E,1,punish,mismatched,1.58427,,,,,0.653846154,0.346153846,exploit_reward
74,10,run03,AB,A,1,reward,matched,1.583323,0.772727273,0.227272727,,,,,explore_reward
75,10,run03,CD,C,2,reward,matched,1.590559,,,0.769230769,0.230769231,,,explore_punish
76,10,run03,EF,E,2,reward,matched,1.567234,,,,,0.666666667,0.333333333,explore_punish
77,10,run03,AB,A,1,reward,matched,1.583591,0.782608696,0.217391304,,,,,exploit_reward
78,10,run04,AB,A,1,reward,matched,1.564064,0.791666667,0.208333333,,,,,exploit_reward
79,10,run04,AB,B,1,reward,mismatched,1.598885,0.76,0.24,,,,,explore_reward
80,10,run04,CD,C,1,reward,matched,1.594014,,,0.777777778,0.222222222,,,exploit_reward
81,10,run04,CD,C,2,reward,matched,1.591252,,,0.785714286,0.214285714,,,exploit_reward
82,10,run04,CD,D,2,punish,matched,1.58998,,,0.793103448,0.206896552,,,explore_reward
83,10,run04,EF,E,1,reward,matched,1.564129,,,,,0.678571429,0.321428571,exploit_reward
84,10,run04,EF,E,2,punish,mismatched,1.592465,,,,,0.655172414,0.344827586,exploit_reward
85,10,run04,CD,C,1,reward,matched,1.576756,,,0.8,0.2,,,exploit_punish
86,10,run04,AB,A,1,reward,matched,1.576123,0.769230769,0.230769231,,,,,explore_reward
87,10,run04,EF,E,2,reward,matched,1.593279,,,,,0.666666667,0.333333333,explore_punish
88,10,run04,CD,C,2,punish,mismatched,1.5925,,,0.774193548,0.225806452,,,exploit_reward
89,10,run04,AB,B,2,punish,matched,1.588583,0.777777778,0.222222222,,,,,explore_reward
90,10,run04,CD,C,2,reward,matched,1.591349,,,0.78125,0.21875,,,explore_punish
91,10,run04,EF,E,2,reward,matched,1.580727,,,,,0.677419355,0.322580645,exploit_reward
92,10,run04,CD,D,1,punish,matched,1.587678,,,0.787878788,0.212121212,,,explore_reward
93,10,run04,EF,E,2,reward,matched,1.585048,,,,,0.6875,0.3125,exploit_reward
94,10,run04,AB,A,2,reward,matched,1.585071,0.785714286,0.214285714,,,,,exploit_punish
95,10,run04,AB,A,1,reward,matched,1.575284,0.793103448,0.206896552,,,,,exploit_reward
96,10,run04,EF,E,1,reward,matched,1.587548,,,,,0.696969697,0.303030303,exploit_reward
97,10,run04,EF,F,1,reward,mismatched,1.565269,,,,,0.676470588,0.323529412,explore_reward
98,10,run04,CD,D,2,punish,matched,1.586008,,,0.794117647,0.205882353,,,explore_punish
99,10,run04,CD,C,2,reward,matched,1.570333,,,0.8,0.2,,,exploit_punish
100,10,run04,AB,A,2,reward,matched,1.578753,0.8,0.2,,,,,exploit_reward
101,10,run04,AB,A,2,reward,matched,1.590047,0.806451613,0.193548387,,,,,exploit_reward
102,10,run04,CD,D,2,punish,matched,1.596795,,,0.805555556,0.194444444,,,explore_reward
103,10,run04,EF,E,2,reward,matched,1.581341,,,,,0.685714286,0.314285714,explore_reward
0,11,run01,EF,Miss,Miss,Miss,Miss,Miss,,,,,,,
1,11,run01,AB,A,2,reward,matched,1.617802,1,0,,,,,
2,11,run01,AB,B,2,punish,matched,1.583315,1,0,,,,,explore_reward
3,11,run01,AB,A,1,reward,matched,1.61617,1,0,,,,,exploit_punish
4,11,run01,CD,D,2,punish,matched,1.597228,,,1,0,,,
5,11,run01,CD,C,1,punish,mismatched,1.614482,,,0.5,0.5,,,exploit_punish
6,11,run01,AB,B,2,punish,matched,1.612753,1,0,,,,,explore_reward
7,11,run01,EF,E,1,punish,mismatched,1.594407,,,,,0,1,miss_response
8,11,run01,EF,E,2,punish,mismatched,1.59433,,,,,0,1,explore_punish
9,11,run01,CD,D,1,punish,matched,1.608601,,,0.666666667,0.333333333,,,exploit_punish
10,11,run01,AB,B,2,reward,mismatched,1.592781,0.8,0.2,,,,,explore_punish
11,11,run01,CD,C,1,reward,matched,1.60696,,,0.75,0.25,,,exploit_punish
12,11,run01,AB,A,2,reward,matched,1.607107,0.833333333,0.166666667,,,,,explore_reward
13,11,run01,CD,D,1,punish,matched,1.605142,,,0.8,0.2,,,explore_reward
14,11,run01,AB,A,2,reward,matched,1.58909,0.857142857,0.142857143,,,,,exploit_reward
15,11,run01,EF,F,2,reward,mismatched,1.604475,,,,,0,1,exploit_punish
16,11,run01,CD,C,1,punish,mismatched,1.619352,,,0.666666667,0.333333333,,,exploit_punish
17,11,run01,CD,C,2,reward,matched,1.602203,,,0.714285714,0.285714286,,,explore_punish
18,11,run01,CD,C,1,reward,matched,1.600849,,,0.75,0.25,,,exploit_reward
19,11,run01,EF,E,1,punish,mismatched,1.599861,,,,,0,1,explore_reward
20,11,run01,AB,A,2,reward,matched,1.597996,0.875,0.125,,,,,exploit_reward
21,11,run01,AB,B,2,punish,matched,1.598107,0.888888889,0.111111111,,,,,explore_reward
22,11,run01,CD,C,1,punish,mismatched,1.597151,,,0.666666667,0.333333333,,,exploit_reward
23,11,run01,CD,Miss,Miss,Miss,Miss,Miss,,,,,,,miss_response
24,11,run01,EF,F,1,punish,matched,1.594148,,,,,0.2,0.8,exploit_punish
25,11,run01,AB,A,2,reward,matched,1.609459,0.9,0.1,,,,,exploit_punish
26,11,run02,CD,D,2,punish,matched,1.584514,,,0.7,0.3,,,miss_response
27,11,run02,CD,C,1,punish,mismatched,1.616532,,,0.636363636,0.363636364,,,exploit_punish
28,11,run02,EF,F,2,reward,mismatched,1.583326,,,,,0.166666667,0.833333333,explore_punish
29,11,run02,CD,D,1,punish,matched,1.598992,,,0.666666667,0.333333333,,,exploit_punish
30,11,run02,AB,A,2,punish,mismatched,1.598008,0.818181818,0.181818182,,,,,exploit_reward
31,11,run02,AB,B,2,punish,matched,1.596004,0.833333333,0.166666667,,,,,exploit_punish
32,11,run02,CD,C,2,reward,matched,1.594426,,,0.692307692,0.307692308,,,exploit_punish
33,11,run02,CD,C,1,reward,matched,1.611168,,,0.714285714,0.285714286,,,exploit_reward
34,11,run02,EF,E,2,reward,matched,1.592929,,,,,0.285714286,0.714285714,explore_reward
35,11,run02,EF,F,1,reward,mismatched,1.592228,,,,,0.25,0.75,explore_reward
36,11,run02,AB,A,2,reward,matched,1.590569,0.846153846,0.153846154,,,,,exploit_punish
37,11,run02,AB,B,2,punish,matched,1.591122,0.857142857,0.142857143,,,,,explore_reward
38,11,run02,AB,A,1,punish,mismatched,1.605219,0.8,0.2,,,,,exploit_punish
39,11,run02,CD,C,2,reward,matched,1.621202,,,0.733333333,0.266666667,,,exploit_reward
40,11,run02,AB,A,1,reward,matched,1.588459,0.8125,0.1875,,,,,explore_punish
41,11,run02,CD,C,2,reward,matched,1.603307,,,0.75,0.25,,,exploit_reward
42,11,run02,AB,A,1,reward,matched,1.58608,0.823529412,0.176470588,,,,,exploit_reward
43,11,run02,EF,F,1,punish,matched,1.600814,,,,,0.333333333,0.666666667,exploit_reward
44,11,run02,AB,A,2,reward,matched,1.583681,0.833333333,0.166666667,,,,,exploit_reward
45,11,run02,EF,E,2,reward,matched,1.581274,,,,,0.4,0.6,exploit_punish
46,11,run02,AB,A,1,reward,matched,1.598648,0.842105263,0.157894737,,,,,exploit_reward
47,11,run02,EF,F,2,reward,mismatched,1.613424,,,,,0.363636364,0.636363636,explore_reward
48,11,run02,CD,D,2,reward,mismatched,1.595742,,,0.705882353,0.294117647,,,explore_reward
49,11,run02,AB,B,2,reward,mismatched,1.5775,0.8,0.2,,,,,explore_reward
50,11,run02,CD,D,2,punish,matched,1.61005,,,0.722222222,0.277777778,,,exploit_reward
51,11,run02,EF,E,2,reward,matched,1.608649,,,,,0.416666667,0.583333333,explore_reward
52,11,run04,CD,D,2,punish,matched,1.584703,,,0.736842105,0.263157895,,,explore_punish
53,11,run04,AB,A,1,reward,matched,1.600504,0.80952381,0.19047619,,,,,explore_reward
54,11,run04,AB,A,2,reward,matched,1.59998,0.818181818,0.181818182,,,,,exploit_reward
55,11,run04,AB,B,1,punish,matched,1.598201,0.826086957,0.173913043,,,,,explore_reward
56,11,run04,EF,F,2,punish,matched,1.59708,,,,,0.461538462,0.538461538,explore_reward
57,11,run04,CD,C,1,reward,matched,1.59549,,,0.75,0.25,,,exploit_punish
58,11,run04,EF,F,1,punish,matched,1.612805,,,,,0.5,0.5,explore_punish
59,11,run04,AB,B,2,punish,matched,1.610557,0.833333333,0.166666667,,,,,explore_punish
60,11,run04,EF,E,1,punish,mismatched,1.594493,,,,,0.466666667,0.533333333,exploit_punish
61,11,run04,CD,D,2,punish,matched,1.626398,,,0.761904762,0.238095238,,,explore_reward
62,11,run04,AB,A,1,reward,matched,1.609068,0.84,0.16,,,,,exploit_punish
63,11,run04,AB,A,2,reward,matched,1.606492,0.846153846,0.153846154,,,,,exploit_reward
64,11,run04,CD,D,1,punish,matched,1.60519,,,0.772727273,0.227272727,,,explore_punish
65,11,run04,CD,C,2,reward,matched,1.604288,,,0.782608696,0.217391304,,,exploit_punish
66,11,run04,CD,D,1,punish,matched,1.603498,,,0.791666667,0.208333333,,,explore_reward
67,11,run04,AB,A,2,reward,matched,1.585719,0.851851852,0.148148148,,,,,exploit_reward
68,11,run04,EF,F,1,reward,mismatched,1.60305,,,,,0.4375,0.5625,exploit_punish
69,11,run04,CD,C,1,punish,mismatched,1.583858,,,0.76,0.24,,,exploit_punish
70,11,run04,CD,C,2,reward,matched,1.600522,,,0.769230769,0.230769231,,,explore_punish
71,11,run04,CD,D,1,punish,matched,1.59969,,,0.777777778,0.222222222,,,explore_reward
72,11,run04,EF,E,2,reward,matched,1.59848,,,,,0.470588235,0.529411765,explore_reward
73,11,run04,AB,B,1,punish,matched,1.597726,0.857142857,0.142857143,,,,,explore_reward
74,11,run04,EF,F,2,punish,matched,1.596212,,,,,0.5,0.5,explore_reward
75,11,run04,AB,B,2,reward,mismatched,1.611254,0.827586207,0.172413793,,,,,explore_punish
76,11,run04,CD,C,1,punish,mismatched,1.59346,,,0.75,0.25,,,exploit_punish
77,11,run04,AB,A,2,reward,matched,1.592316,0.833333333,0.166666667,,,,,explore_reward
0,12,run01,AB,Miss,Miss,Miss,Miss,Miss,,,,,,,
1,12,run01,CD,C,2,punish,mismatched,1.58458,,,0,1,,,
2,12,run01,CD,D,1,punish,matched,1.571846,,,0.5,0.5,,,exploit_punish
3,12,run01,EF,F,2,punish,matched,1.567075,,,,,1,0,
4,12,run01,AB,B,2,punish,matched,1.550793,1,0,,,,,miss_response
5,12,run01,EF,E,1,reward,matched,1.581689,,,,,1,0,exploit_punish
6,12,run01,CD,Miss,Miss,Miss,Miss,Miss,,,,,,,exploit_punish
7,12,run01,CD,Miss,Miss,Miss,Miss,Miss,,,,,,,miss_response
8,12,run01,CD,C,1,reward,matched,1.580996,,,0.666666667,0.333333333,,,miss_response
9,12,run01,EF,E,2,reward,matched,1.583452,,,,,1,0,exploit_reward
10,12,run01,EF,E,2,reward,matched,1.582994,,,,,1,0,exploit_reward
11,12,run01,EF,E,1,punish,mismatched,1.582633,,,,,0.8,0.2,exploit_reward
12,12,run01,CD,D,2,reward,mismatched,1.58207,,,0.5,0.5,,,explore_reward
13,12,run01,CD,C,1,reward,matched,1.579983,,,0.6,0.4,,,explore_reward
14,12,run01,CD,D,1,punish,matched,1.589605,,,0.666666667,0.333333333,,,explore_reward
15,12,run01,CD,C,2,reward,matched,1.577553,,,0.714285714,0.285714286,,,exploit_punish
16,12,run01,EF,E,1,punish,mismatched,1.571502,,,,,0.666666667,0.333333333,explore_punish
17,12,run01,EF,Miss,Miss,Miss,Miss,Miss,,,,,,,miss_response
18,12,run01,EF,E,1,punish,mismatched,1.569795,,,,,0.571428571,0.428571429,miss_response
19,12,run01,CD,D,1,punish,matched,1.580431,,,0.75,0.25,,,explore_reward
20,12,run01,EF,F,2,reward,mismatched,1.581433,,,,,0.5,0.5,exploit_punish
21,12,run01,CD,C,1,reward,matched,1.568495,,,0.777777778,0.222222222,,,exploit_punish
22,12,run01,AB,A,2,reward,matched,1.575042,1,0,,,,,exploit_punish
23,12,run01,EF,E,1,reward,matched,1.565456,,,,,0.555555556,0.444444444,explore_reward
24,12,run01,EF,E,2,reward,matched,1.564713,,,,,0.6,0.4,exploit_reward
25,12,run01,AB,A,2,reward,matched,1.579897,1,0,,,,,exploit_reward
26,12,run02,AB,A,1,reward,matched,1.575491,1,0,,,,,exploit_reward
27,12,run02,EF,E,2,reward,matched,1.593798,,,,,0.636363636,0.363636364,exploit_reward
28,12,run02,AB,B,1,punish,matched,1.605597,1,0,,,,,explore_reward
29,12,run02,CD,D,1,reward,mismatched,1.599224,,,0.7,0.3,,,explore_reward
30,12,run02,AB,B,1,reward,mismatched,1.603385,0.833333333,0.166666667,,,,,explore_punish
31,12,run02,AB,B,2,reward,mismatched,1.598385,0.714285714,0.285714286,,,,,exploit_reward
32,12,run02,AB,A,1,reward,matched,1.601251,0.75,0.25,,,,,explore_reward
33,12,run02,AB,B,1,punish,matched,1.608916,0.777777778,0.222222222,,,,,explore_reward
34,12,run02,AB,A,2,punish,mismatched,1.61031,0.7,0.3,,,,,exploit_punish
35,12,run02,CD,C,1,reward,matched,1.608959,,,0.727272727,0.272727273,,,explore_reward
36,12,run02,CD,C,1,punish,mismatched,1.617743,,,0.666666667,0.333333333,,,exploit_reward
37,12,run02,AB,A,1,reward,matched,1.611236,0.727272727,0.272727273,,,,,explore_punish
38,12,run02,AB,B,1,punish,matched,1.598822,0.75,0.25,,,,,explore_reward
39,12,run02,EF,F,2,punish,matched,1.605876,,,,,0.666666667,0.333333333,explore_reward
40,12,run02,EF,F,1,reward,mismatched,1.60034,,,,,0.615384615,0.384615385,explore_punish
41,12,run02,EF,Miss,Miss,Miss,Miss,Miss,,,,,,,miss_response
42,12,run02,EF,E,2,reward,matched,1.59202,,,,,0.642857143,0.357142857,miss_response
43,12,run02,EF,E,2,reward,matched,1.610003,,,,,0.666666667,0.333333333,exploit_reward
44,12,run02,AB,B,1,punish,matched,1.572551,0.769230769,0.230769231,,,,,explore_punish
45,12,run02,CD,D,2,punish,matched,1.569251,,,0.692307692,0.307692308,,,exploit_punish
46,12,run02,EF,F,2,punish,matched,1.582753,,,,,0.6875,0.3125,explore_reward
47,12,run02,AB,A,2,reward,matched,1.567474,0.785714286,0.214285714,,,,,exploit_punish
48,12,run02,AB,A,1,reward,matched,1.552607,0.8,0.2,,,,,exploit_reward
49,12,run02,CD,C,1,reward,matched,1.568261,,,0.714285714,0.285714286,,,exploit_punish
50,12,run02,AB,A,1,reward,matched,1.536551,0.8125,0.1875,,,,,exploit_reward
51,12,run02,CD,C,2,punish,mismatched,1.570499,,,0.666666667,0.333333333,,,exploit_reward
52,12,run03,AB,Miss,Miss,Miss,Miss,Miss,,,,,,,miss_response
53,12,run03,EF,F,1,punish,matched,1.591083,,,,,0.705882353,0.294117647,explore_punish
54,12,run03,EF,E,2,reward,matched,1.611619,,,,,0.722222222,0.277777778,exploit_punish
55,12,run03,CD,C,1,reward,matched,1.600519,,,0.6875,0.3125,,,explore_punish
56,12,run03,EF,F,2,punish,matched,1.602613,,,,,0.736842105,0.263157895,explore_reward
57,12,run03,AB,B,2,punish,matched,1.499542,0.823529412,0.176470588,,,,,miss_response
58,12,run03,AB,A,1,reward,matched,1.599136,0.833333333,0.166666667,,,,,exploit_punish
59,12,run03,EF,F,2,reward,mismatched,1.620173,,,,,0.7,0.3,explore_punish
60,12,run03,EF,F,1,punish,matched,1.614524,,,,,0.714285714,0.285714286,exploit_reward
61,12,run03,AB,B,2,punish,matched,1.604266,0.842105263,0.157894737,,,,,explore_reward
62,12,run03,AB,B,2,punish,matched,1.612123,0.85,0.15,,,,,explore_punish
63,12,run03,AB,B,1,punish,matched,1.60009,0.857142857,0.142857143,,,,,explore_punish
64,12,run03,CD,C,1,reward,matched,1.607877,,,0.705882353,0.294117647,,,exploit_reward
65,12,run03,EF,E,1,punish,mismatched,1.59155,,,,,0.681818182,0.318181818,exploit_punish
66,12,run03,AB,B,1,punish,matched,1.605374,0.863636364,0.136363636,,,,,explore_punish
67,12,run03,EF,E,2,reward,matched,1.603245,,,,,0.695652174,0.304347826,explore_punish
68,12,run03,EF,E,2,punish,mismatched,1.604953,,,,,0.666666667,0.333333333,exploit_reward
69,12,run03,AB,A,1,punish,mismatched,1.6057,0.826086957,0.173913043,,,,,exploit_punish
70,12,run03,AB,B,2,punish,matched,1.599088,0.833333333,0.166666667,,,,,exploit_punish
71,12,run03,CD,D,1,punish,matched,1.612283,,,0.722222222,0.277777778,,,explore_reward
72,12,run03,CD,C,2,reward,matched,1.600202,,,0.736842105,0.263157895,,,exploit_punish
73,12,run03,EF,E,2,reward,matched,1.604451,,,,,0.68,0.32,explore_punish
74,12,run03,EF,F,1,punish,matched,1.601066,,,,,0.692307692,0.307692308,explore_reward
75,12,run03,EF,E,1,punish,mismatched,1.615583,,,,,0.666666667,0.333333333,exploit_punish
76,12,run03,AB,A,2,punish,mismatched,1.608407,0.8,0.2,,,,,exploit_punish
77,12,run03,EF,F,1,reward,mismatched,1.563744,,,,,0.642857143,0.357142857,exploit_punish
78,12,run04,EF,F,1,punish,matched,1.569294,,,,,0.655172414,0.344827586,exploit_reward
79,12,run04,CD,D,1,punish,matched,1.599515,,,0.75,0.25,,,explore_reward
80,12,run04,AB,B,2,punish,matched,1.609752,0.807692308,0.192307692,,,,,exploit_punish
81,12,run04,AB,A,1,reward,matched,1.599681,0.814814815,0.185185185,,,,,exploit_punish
82,12,run04,AB,B,1,reward,mismatched,1.613575,0.785714286,0.214285714,,,,,explore_reward
83,12,run04,AB,B,1,punish,matched,1.58315,0.793103448,0.206896552,,,,,exploit_reward
84,12,run04,EF,F,2,reward,mismatched,1.609842,,,,,0.633333333,0.366666667,explore_punish
85,12,run04,EF,E,2,reward,matched,1.593632,,,,,0.64516129,0.35483871,explore_reward
86,12,run04,CD,D,1,punish,matched,1.609447,,,0.761904762,0.238095238,,,explore_punish
87,12,run04,CD,D,1,punish,matched,1.609053,,,0.772727273,0.227272727,,,explore_punish
88,12,run04,CD,D,2,reward,mismatched,1.593227,,,0.739130435,0.260869565,,,explore_punish
89,12,run04,EF,E,1,reward,matched,1.591412,,,,,0.65625,0.34375,exploit_reward
90,12,run04,AB,A,2,punish,mismatched,1.59136,0.766666667,0.233333333,,,,,exploit_punish
91,12,run04,CD,D,1,reward,mismatched,1.598919,,,0.708333333,0.291666667,,,exploit_reward
92,12,run04,AB,A,2,reward,matched,1.605975,0.774193548,0.225806452,,,,,explore_punish
93,12,run04,AB,A,2,reward,matched,1.596024,0.78125,0.21875,,,,,exploit_reward
94,12,run04,EF,E,1,reward,matched,1.596714,,,,,0.666666667,0.333333333,exploit_reward
95,12,run04,EF,F,2,punish,matched,1.594816,,,,,0.676470588,0.323529412,explore_reward
96,12,run04,AB,A,1,reward,matched,1.55514,0.787878788,0.212121212,,,,,exploit_reward
97,12,run04,AB,B,1,reward,mismatched,1.565496,0.764705882,0.235294118,,,,,explore_reward
98,12,run04,AB,A,2,punish,mismatched,1.580043,0.742857143,0.257142857,,,,,explore_reward
99,12,run04,EF,F,1,reward,mismatched,1.570589,,,,,0.657142857,0.342857143,explore_punish
100,12,run04,AB,A,2,reward,matched,1.562239,0.75,0.25,,,,,explore_punish
101,12,run04,CD,D,2,punish,matched,1.572586,,,0.72,0.28,,,exploit_reward
102,12,run04,AB,A,1,reward,matched,1.566097,0.756756757,0.243243243,,,,,exploit_reward
103,12,run04,CD,C,1,reward,matched,1.577559,,,0.730769231,0.269230769,,,exploit_punish
0,13,run01,CD,C,1,punish,mismatched,1.570322,,,0,1,,,
1,13,run01,CD,Miss,Miss,Miss,Miss,Miss,,,,,,,miss_response
2,13,run01,CD,D,1,reward,mismatched,1.554818,,,0,1,,,miss_response
3,13,run01,EF,E,2,reward,matched,1.568124,,,,,1,0,
4,13,run01,AB,B,1,reward,mismatched,1.578305,0,1,,,,,
5,13,run01,CD,D,2,punish,matched,1.559637,,,0.333333333,0.666666667,,,exploit_reward
6,13,run01,AB,A,1,reward,matched,1.566099,0.5,0.5,,,,,explore_reward
7,13,run01,EF,E,1,punish,mismatched,1.568419,,,,,0.5,0.5,exploit_reward
8,13,run01,AB,B,2,punish,matched,1.581295,0.666666667,0.333333333,,,,,explore_reward
9,13,run01,AB,B,2,reward,mismatched,1.565629,0.5,0.5,,,,,explore_punish
10,13,run01,CD,D,1,reward,mismatched,1.583825,,,0.25,0.75,,,explore_punish
11,13,run01,CD,D,2,punish,matched,1.580349,,,0.4,0.6,,,exploit_reward
12,13,run01,EF,E,1,reward,matched,1.581633,,,,,0.666666667,0.333333333,explore_punish
13,13,run01,AB,A,2,reward,matched,1.579148,0.6,0.4,,,,,explore_reward
14,13,run01,EF,E,1,reward,matched,1.58026,,,,,0.75,0.25,exploit_reward
15,13,run01,CD,C,1,reward,matched,1.577046,,,0.5,0.5,,,exploit_punish
16,13,run01,AB,B,1,punish,matched,1.554036,0.666666667,0.333333333,,,,,explore_reward
17,13,run01,CD,D,1,punish,matched,1.572121,,,0.571428571,0.428571429,,,explore_reward
18,13,run01,EF,E,2,reward,matched,1.570237,,,,,0.8,0.2,exploit_reward
19,13,run01,EF,E,1,reward,matched,1.577905,,,,,0.833333333,0.166666667,exploit_reward
20,13,run01,CD,C,2,reward,matched,1.567939,,,0.625,0.375,,,exploit_punish
21,13,run01,AB,B,1,punish,matched,1.567732,0.714285714,0.285714286,,,,,explore_punish
22,13,run01,CD,C,2,reward,matched,1.575164,,,0.666666667,0.333333333,,,exploit_reward
23,13,run01,AB,A,2,reward,matched,1.582089,0.75,0.25,,,,,exploit_punish
24,13,run01,CD,C,1,reward,matched,1.580717,,,0.7,0.3,,,exploit_reward
25,13,run01,EF,F,2,punish,matched,1.584252,,,,,0.857142857,0.142857143,explore_reward
26,13,run02,AB,B,1,punish,matched,1.576157,0.777777778,0.222222222,,,,,explore_reward
27,13,run02,CD,C,2,reward,matched,1.608162,,,0.727272727,0.272727273,,,exploit_reward
28,13,run02,CD,C,1,reward,matched,1.605245,,,0.75,0.25,,,exploit_reward
29,13,run02,CD,D,2,punish,matched,1.610251,,,0.769230769,0.230769231,,,explore_reward
30,13,run02,EF,F,1,punish,matched,1.586256,,,,,0.875,0.125,explore_punish
31,13,run02,EF,F,1,reward,mismatched,1.598308,,,,,0.777777778,0.222222222,explore_punish
32,13,run02,EF,E,2,reward,matched,1.59911,,,,,0.8,0.2,explore_reward
33,13,run02,EF,E,2,reward,matched,1.603649,,,,,0.818181818,0.181818182,exploit_reward
34,13,run02,AB,B,1,punish,matched,1.605351,0.8,0.2,,,,,explore_punish
35,13,run02,EF,E,1,punish,mismatched,1.577336,,,,,0.75,0.25,exploit_reward
36,13,run02,EF,F,2,reward,mismatched,1.564264,,,,,0.692307692,0.307692308,exploit_punish
37,13,run02,AB,B,2,punish,matched,1.561097,0.818181818,0.181818182,,,,,explore_punish
38,13,run02,CD,D,1,punish,matched,1.578809,,,0.785714286,0.214285714,,,explore_punish
39,13,run02,EF,E,1,reward,matched,1.574534,,,,,0.714285714,0.285714286,explore_reward
40,13,run02,CD,D,2,punish,matched,1.581102,,,0.8,0.2,,,explore_punish
41,13,run02,EF,E,1,punish,mismatched,1.566808,,,,,0.666666667,0.333333333,exploit_reward
42,13,run02,CD,C,2,reward,matched,1.574052,,,0.8125,0.1875,,,exploit_punish
43,13,run02,AB,A,2,reward,matched,1.572127,0.833333333,0.166666667,,,,,exploit_punish
44,13,run02,CD,C,2,reward,matched,1.571197,,,0.823529412,0.176470588,,,exploit_reward
45,13,run02,AB,B,2,punish,matched,1.567029,0.846153846,0.153846154,,,,,explore_reward
46,13,run02,EF,F,1,reward,mismatched,1.574503,,,,,0.625,0.375,exploit_punish
47,13,run02,EF,F,2,punish,matched,1.581253,,,,,0.647058824,0.352941176,exploit_reward
48,13,run02,CD,C,1,reward,matched,1.566101,,,0.833333333,0.166666667,,,exploit_reward
49,13,run02,AB,B,2,punish,matched,1.584203,0.857142857,0.142857143,,,,,explore_punish
50,13,run02,EF,F,1,reward,mismatched,1.567862,,,,,0.611111111,0.388888889,explore_punish
51,13,run02,AB,A,1,punish,mismatched,1.568848,0.8,0.2,,,,,exploit_punish
52,13,run03,EF,F,1,reward,mismatched,1.554468,,,,,0.578947368,0.421052632,exploit_reward
53,13,run03,CD,D,1,punish,matched,1.569034,,,0.842105263,0.157894737,,,explore_reward
54,13,run03,CD,D,1,reward,mismatched,1.568408,,,0.8,0.2,,,explore_punish
55,13,run03,AB,A,2,reward,matched,1.573407,0.8125,0.1875,,,,,explore_punish
56,13,run03,CD,C,2,reward,matched,1.578124,,,0.80952381,0.19047619,,,explore_reward
